submission_id,QUD,RT,age,comments,condition,education,endTime,experiment_id,gender,item,languages,min_chars,option1,option2,option3,phase,question,response,role_noun,sample_info,startDate,startTime,stereotype,timeSpent,trial_name,trial_number
3511,,34024,25,Spannendes Experiment. Ich bin gespannt auf die Ergebnisse!,gender-neutral,Abitur,1655314540506,302,weiblich,33,deutsch,2,NA,NA,NA,1,"Mediziner*innen tragen eine große Verantwortung. <br /> ____ kontrolliert jedes Rezept, das ausgestellt wird mehrfach, um Fehler zu vermeiden. <br /><br /> Bitte schreibe einen passenden Namen in das Feld.",Katharina,Mediziner*innen,,Wed Jun 15 2022 19:13:52 GMT+0200 (Mitteleuropäische Sommerzeit),1655313232146,neutral,21.806,filler_sentences,1
3511,,12657,25,Spannendes Experiment. Ich bin gespannt auf die Ergebnisse!,male,Abitur,1655314540506,302,weiblich,36,deutsch,2,NA,NA,NA,1,"Während der Pandemie vermissten die Studenten vor allem die Mensa. <br /> ____ geht jeden Tag essen, seit sie wieder geöffnet ist. <br /><br /> Bitte schreibe einen passenden Namen in das Feld.",Finn,Student*innen,,Wed Jun 15 2022 19:13:52 GMT+0200 (Mitteleuropäische Sommerzeit),1655313232146,neutral,21.806,filler_sentences,1
3511,,33500,25,Spannendes Experiment. Ich bin gespannt auf die Ergebnisse!,female,Abitur,1655314540506,302,weiblich,17,deutsch,2,NA,NA,NA,1,Urbane Bürgermeisterinnen haben andere Prioritäten als jene auf dem Land. <br />	__________ legt das Hauptaugenmerk in der aktuellen Kampagne auf Innovation und Klimaschutz. <br /><br /> Bitte schreibe einen passenden Namen in das Feld.,Annette,Bürgermeister*innen,,Wed Jun 15 2022 19:13:52 GMT+0200 (Mitteleuropäische Sommerzeit),1655313232146,male,21.806,filler_sentences,1
3511,,20552,25,Spannendes Experiment. Ich bin gespannt auf die Ergebnisse!,gender-neutral,Abitur,1655314540506,302,weiblich,24,deutsch,2,NA,NA,NA,1,Während einer Nachtschicht wird der Dienst von Taxifahrer*innen hauptsächlich von Betrunkenen in Anspruch genommen. <br />	____ arbeitet deswegen lieber tagsüber. <br /><br /> Bitte schreibe einen passenden Namen in das Feld.,Sandra,Taxifahrer*innen,,Wed Jun 15 2022 19:13:52 GMT+0200 (Mitteleuropäische Sommerzeit),1655313232146,male,21.806,filler_sentences,1
3511,,15643,25,Spannendes Experiment. Ich bin gespannt auf die Ergebnisse!,gender-neutral,Abitur,1655314540506,302,weiblich,7,deutsch,2,NA,NA,NA,1,Bei den ganzen neuen Trends kommen Friseur*innen kaum noch hinterher.<br /> ___________ schneidet am liebsten klassische Frisuren. <br /><br /> Bitte schreibe einen passenden Namen in das Feld.,Mustafa,Friseur*innen,,Wed Jun 15 2022 19:13:52 GMT+0200 (Mitteleuropäische Sommerzeit),1655313232146,female,21.806,filler_sentences,1
3511,,25398,25,Spannendes Experiment. Ich bin gespannt auf die Ergebnisse!,female,Abitur,1655314540506,302,weiblich,14,deutsch,2,NA,NA,NA,1,Seit einiger Zeit nehmen Metzgerinnen auch vegetarische Produkte in ihr Sortiment auf. <br /> __________ bietet jetzt auch Gemüsefrikadellen an der Frischetheke an. <br /><br /> Bitte schreibe einen passenden Namen in das Feld.,Monika,Metzger*innen,,Wed Jun 15 2022 19:13:52 GMT+0200 (Mitteleuropäische Sommerzeit),1655313232146,male,21.806,filler_sentences,1
3511,,25410,25,Spannendes Experiment. Ich bin gespannt auf die Ergebnisse!,male,Abitur,1655314540506,302,weiblich,18,deutsch,2,NA,NA,NA,1,"Die erfolgreiche Festnahme von Mördern nimmt aufgrund technologischen Fortschritts immer weiter zu. <br />	__________ konnte aufgrund von Videoüberwachung und der Ortung des Smartphones schnell verhaftet werden, bevor es ein neues Opfer gab. <br /><br /> Bitte schreibe einen passenden Namen in das Feld.",Jürgen,Mörder*innen,,Wed Jun 15 2022 19:13:52 GMT+0200 (Mitteleuropäische Sommerzeit),1655313232146,male,21.806,filler_sentences,1
3511,,54419,25,Spannendes Experiment. Ich bin gespannt auf die Ergebnisse!,gender-neutral,Abitur,1655314540506,302,weiblich,16,deutsch,2,NA,NA,NA,1,Organisation und Führungsstärke gehören zu den wichtigsten Merkmalen von Manager*innen. <br /> __________ legt trotzdem viel Wert auf ein freundliches Arbeitsklima im Büro. <br /><br /> Bitte schreibe einen passenden Namen in das Feld.,Leona,Manager*innen,,Wed Jun 15 2022 19:13:52 GMT+0200 (Mitteleuropäische Sommerzeit),1655313232146,male,21.806,filler_sentences,1
3511,,17319,25,Spannendes Experiment. Ich bin gespannt auf die Ergebnisse!,male,Abitur,1655314540506,302,weiblich,20,deutsch,2,NA,NA,NA,1,"Auf dem Weltklima-Gipfel versammeln sich unter anderem Präsidenten verschiedener Länder, um über eine politische Zusammenarbeit zu diskutieren. <br />	____ ist für die Einführung einer einheitlichen, verpflichtenden CO2-Besteuerung. <br /><br /> Bitte schreibe einen passenden Namen in das Feld.",Joel,Präsident*innen,,Wed Jun 15 2022 19:13:52 GMT+0200 (Mitteleuropäische Sommerzeit),1655313232146,male,21.806,filler_sentences,1
3511,,15139,25,Spannendes Experiment. Ich bin gespannt auf die Ergebnisse!,female,Abitur,1655314540506,302,weiblich,22,deutsch,2,NA,NA,NA,1,In Deutschland dürfen Soldatinnen kostenlos die öffentlichen Verkehrsmittel nutzen. <br />	____ besucht deshalb jede Woche die Familie. <br /> <br />Bitte schreibe einen passenden Namen in das Feld.,Phillip,Soldat*innen,,Wed Jun 15 2022 19:13:52 GMT+0200 (Mitteleuropäische Sommerzeit),1655313232146,male,21.806,filler_sentences,1
3511,,12055,25,Spannendes Experiment. Ich bin gespannt auf die Ergebnisse!,gender-neutral,Abitur,1655314540506,302,weiblich,12,deutsch,2,NA,NA,NA,1,"Die Fast-Fashion Industrie sorgt dafür, dass Schneider*innen kaum noch Aufträge bekommen. <br /> __________ sucht daher nach einem Nebenjob, um die Miete bezahlen zu können. <br /><br /> Bitte schreibe einen passenden Namen in das Feld.",Nadja,Schneider*innen,,Wed Jun 15 2022 19:13:52 GMT+0200 (Mitteleuropäische Sommerzeit),1655313232146,female,21.806,filler_sentences,1
3511,,21057,25,Spannendes Experiment. Ich bin gespannt auf die Ergebnisse!,gender-neutral,Abitur,1655314540506,302,weiblich,31,deutsch,2,NA,NA,NA,1,In den Wintermonaten steigt die Anzahl der Patient*innen in den Arztpraxen stark an. <br /> ____ wartet schon seit Tagen auf einen Termin. <br /><br /> Bitte schreibe einen passenden Namen in das Feld.,Herbert,Patient*innen,,Wed Jun 15 2022 19:13:52 GMT+0200 (Mitteleuropäische Sommerzeit),1655313232146,neutral,21.806,filler_sentences,1
3511,,34298,25,Spannendes Experiment. Ich bin gespannt auf die Ergebnisse!,gender-neutral,Abitur,1655314540506,302,weiblich,28,deutsch,2,NA,NA,NA,1,"Um die besten Angebote nicht zu verpassen, müssen Immobilienmakler*innen täglich das Internet durchforsten. <br /> ____ hat allein heute 3 Stunden recherchiert. <br /><br /> Bitte schreibe einen passenden Namen in das Feld.",Mirko,Immobilienmakler*innen,,Wed Jun 15 2022 19:13:52 GMT+0200 (Mitteleuropäische Sommerzeit),1655313232146,neutral,21.806,filler_sentences,1
3511,,12478,25,Spannendes Experiment. Ich bin gespannt auf die Ergebnisse!,male,Abitur,1655314540506,302,weiblich,27,deutsch,2,NA,NA,NA,1,Während der Corona-Pandemie hatten Hundehalter mehr Zeit für ihre Vierbeiner. <br /> ____ ging jeden Nachmittag ausgiebig mit dem Hund spazieren. <br /><br /> Bitte schreibe einen passenden Namen in das Feld.,Lisa,Hundehalter*innen,,Wed Jun 15 2022 19:13:52 GMT+0200 (Mitteleuropäische Sommerzeit),1655313232146,neutral,21.806,filler_sentences,1
3511,,26892,25,Spannendes Experiment. Ich bin gespannt auf die Ergebnisse!,female,Abitur,1655314540506,302,weiblich,19,deutsch,2,NA,NA,NA,1,"Weil Pilotinnen beim Fliegen einer erhöhten Strahlung ausgesetzt sind, müssen sie früher in den Ruhestand. <br />		____ geht Ende des Jahres bereits in Rente, während Gleichaltrige noch 8 Jahre in ihrem Job arbeiten müssen. <br /><br /> Bitte schreibe einen passenden Namen in das Feld.",Antje,Pilot*innen,,Wed Jun 15 2022 19:13:52 GMT+0200 (Mitteleuropäische Sommerzeit),1655313232146,male,21.806,filler_sentences,1
3511,,49374,25,Spannendes Experiment. Ich bin gespannt auf die Ergebnisse!,gender-neutral,Abitur,1655314540506,302,weiblich,21,deutsch,2,NA,NA,NA,1,Eine erfolgreiche TV-Serie berichtet über die spannende Arbeit von Privatdetektiv*innen. <br />	____ arbeitet schon seit langem in einer Detektei und ärgert sich über die unauthentische Darstellung des Berufes. <br /><br /> Bitte schreibe einen passenden Namen in das Feld.,Zoe,Privatdetektiv*innen,,Wed Jun 15 2022 19:13:52 GMT+0200 (Mitteleuropäische Sommerzeit),1655313232146,male,21.806,filler_sentences,1
3511,,14171,25,Spannendes Experiment. Ich bin gespannt auf die Ergebnisse!,female,Abitur,1655314540506,302,weiblich,6,deutsch,2,NA,NA,NA,1,Im Gegensatz zu allen Fluggästen mögen Flugbegleiterinnen keinen Tomatensaft.<br /> ___________ bevorzugt Orangensaft während einer langen Flugreise. <br /><br /> Bitte schreibe einen passenden Namen in das Feld.,Svenja,Flugbegleiter*innen,,Wed Jun 15 2022 19:13:52 GMT+0200 (Mitteleuropäische Sommerzeit),1655313232146,female,21.806,filler_sentences,1
3511,,13532,25,Spannendes Experiment. Ich bin gespannt auf die Ergebnisse!,male,Abitur,1655314540506,302,weiblich,2,deutsch,2,NA,NA,NA,1,Die Balletttänzer der Kompanie haben ihre Generalprobe auf der großen Bühne. <br /> ____________ verletzt sich dabei am Bein. <br /> <br />Bitte schreibe einen passenden Namen in das Feld.,Ruan,Baletttänzer*innen,,Wed Jun 15 2022 19:13:52 GMT+0200 (Mitteleuropäische Sommerzeit),1655313232146,female,21.806,filler_sentences,1
3511,,22680,25,Spannendes Experiment. Ich bin gespannt auf die Ergebnisse!,male,Abitur,1655314540506,302,weiblich,5,deutsch,2,NA,NA,NA,1,"Wenn die Jahreszeiten wechseln, müssen Floristen die ganze Gärtnerei neu dekorieren. <br /> __________ liebt vor allem die Herbstdekoration. <br /> <br /> Bitte schreibe einen passenden Namen in das Feld.",Thorsten,Florist*innen,,Wed Jun 15 2022 19:13:52 GMT+0200 (Mitteleuropäische Sommerzeit),1655313232146,female,21.806,filler_sentences,1
3511,,26945,25,Spannendes Experiment. Ich bin gespannt auf die Ergebnisse!,female,Abitur,1655314540506,302,weiblich,15,deutsch,2,NA,NA,NA,1,"Ein leistungsstarker Computer ist ausschlaggebend für die Arbeit von Programmiererinnen. <br /> __________ installiert regelmäßig die neuesten Softwareupdates, um nicht von der Konkurrenz abgehängt zu werden. <br /><br /> Bitte schreibe einen passenden Namen in das Feld.",Marry,Programmierer*innen,,Wed Jun 15 2022 19:13:52 GMT+0200 (Mitteleuropäische Sommerzeit),1655313232146,male,21.806,filler_sentences,1
3511,,15359,25,Spannendes Experiment. Ich bin gespannt auf die Ergebnisse!,male,Abitur,1655314540506,302,weiblich,32,deutsch,2,NA,NA,NA,1,"Fotografen werden häufig für große Hochzeiten engagiert. <br /> ____ fotografiert dabei am liebsten spontane Momente, die nicht gestellt sind. <br /><br /> Bitte schreibe einen passenden Namen in das Feld.",Christoph,Fotograf*innen,,Wed Jun 15 2022 19:13:52 GMT+0200 (Mitteleuropäische Sommerzeit),1655313232146,neutral,21.806,filler_sentences,1
3511,,11262,25,Spannendes Experiment. Ich bin gespannt auf die Ergebnisse!,male,Abitur,1655314540506,302,weiblich,26,deutsch,2,NA,NA,NA,1,Bei Olympia werden die besten Sportler mit einer Medaille gekürt. <br /> ____ erhält Gold in der Disziplin Schwimmen. <br /><br /> Bitte schreibe einen passenden Namen in das Feld.,Jan,Sportler*innen,,Wed Jun 15 2022 19:13:52 GMT+0200 (Mitteleuropäische Sommerzeit),1655313232146,neutral,21.806,filler_sentences,1
3511,,17215,25,Spannendes Experiment. Ich bin gespannt auf die Ergebnisse!,male,Abitur,1655314540506,302,weiblich,3,deutsch,2,NA,NA,NA,1,Der Arbeitsalltag von Kassierern ist sehr anstrengend. <br /> __________ muss jeden Morgen um fünf Uhr aufstehen. <br /> <br />Bitte schreibe einen passenden Namen in das Feld.,Benjamin,Kassierer*innen,,Wed Jun 15 2022 19:13:52 GMT+0200 (Mitteleuropäische Sommerzeit),1655313232146,female,21.806,filler_sentences,1
3511,,19966,25,Spannendes Experiment. Ich bin gespannt auf die Ergebnisse!,male,Abitur,1655314540506,302,weiblich,9,deutsch,2,NA,NA,NA,1,"Nach dem Feierabend genießen die Kindergärtner die Ruhe von ihren kleinen Schützlingen.<br /> ___________ geht nach der Arbeit eine Runde joggen, um den Kopf freizubekommen. <br /><br /> Bitte schreibe einen passenden Namen in das Feld.",Timo,Kindergärtner*innen,,Wed Jun 15 2022 19:13:52 GMT+0200 (Mitteleuropäische Sommerzeit),1655313232146,female,21.806,filler_sentences,1
3511,,15022,25,Spannendes Experiment. Ich bin gespannt auf die Ergebnisse!,female,Abitur,1655314540506,302,weiblich,29,deutsch,2,NA,NA,NA,1,"Ein Journalismus Studium zu beginnen, ist in Deutschland sehr schwierig, weshalb viele angehende Journalistinnen einen alternativen Bildungsweg einschlagen. <br /> ____ möchte sich trotzdem an der Universität in Berlin bewerben. <br /><br /> Bitte schreibe einen passenden Namen in das Feld.",Lea,Journalist*innen,,Wed Jun 15 2022 19:13:52 GMT+0200 (Mitteleuropäische Sommerzeit),1655313232146,neutral,21.806,filler_sentences,1
3511,,12680,25,Spannendes Experiment. Ich bin gespannt auf die Ergebnisse!,female,Abitur,1655314540506,302,weiblich,1,deutsch,2,NA,NA,NA,1,Babysitterinnen werden trotz fehlender Kitaplätze immer schlechter bezahlt. <br /> ____________ möchte sich deshalb einen neuen Job suchen.<br /> <br /> Bitte schreibe einen passenden Namen in das Feld.,Linda,Babysitter*innen,,Wed Jun 15 2022 19:13:52 GMT+0200 (Mitteleuropäische Sommerzeit),1655313232146,female,21.806,filler_sentences,1
3511,,16191,25,Spannendes Experiment. Ich bin gespannt auf die Ergebnisse!,female,Abitur,1655314540506,302,weiblich,30,deutsch,2,NA,NA,NA,1,Wegen des Mietendeckels konnten viele Mieterinnen während der Pandemie zu günstigen Mieten in ihren Wohnungen bleiben. <br /> ____ wurde jedoch kürzlich wegen Eigenbedarfs der Mietvertrag gekündigt. <br /><br /> Bitte schreibe einen passenden Namen in das Feld.,Kim,Mieter*innen,,Wed Jun 15 2022 19:13:52 GMT+0200 (Mitteleuropäische Sommerzeit),1655313232146,neutral,21.806,filler_sentences,1
3511,,17118,25,Spannendes Experiment. Ich bin gespannt auf die Ergebnisse!,female,Abitur,1655314540506,302,weiblich,35,deutsch,2,NA,NA,NA,1,Eine eigene Praxis ist der Traum vieler Psychiaterinnen. <br /> ____ erhofft sich davon besonders flexible Arbeitszeiten. <br /><br /> Bitte schreibe einen passenden Namen in das Feld.,Manuela,Psychiater*innen,,Wed Jun 15 2022 19:13:52 GMT+0200 (Mitteleuropäische Sommerzeit),1655313232146,neutral,21.806,filler_sentences,1
3511,,13449,25,Spannendes Experiment. Ich bin gespannt auf die Ergebnisse!,gender-neutral,Abitur,1655314540506,302,weiblich,23,deutsch,2,NA,NA,NA,1,"Um während Operationen konzentriert zu bleiben, haben alle Chirurg*innen ihre ganz persönlichen Strategien. <br />	____ hört gerne klassische Musik während eines Eingriffs. <br /><br /> Bitte schreibe einen passenden Namen in das Feld.",Grace,Chirurg*innen,,Wed Jun 15 2022 19:13:52 GMT+0200 (Mitteleuropäische Sommerzeit),1655313232146,male,21.806,filler_sentences,1
3511,,32133,25,Spannendes Experiment. Ich bin gespannt auf die Ergebnisse!,male,Abitur,1655314540506,302,weiblich,8,deutsch,2,NA,NA,NA,1,"Viele Haushälter kümmern sich neben dem Haushalt auch um das seelische Wohl ihrer Vorgesetzten.<br /> ___________ hat immer ein offenes Ohr, wenn die Kinder Probleme in der Schule haben. <br /><br /> Bitte schreibe einen passenden Namen in das Feld.",Gido,Haushälter*innen,,Wed Jun 15 2022 19:13:52 GMT+0200 (Mitteleuropäische Sommerzeit),1655313232146,female,21.806,filler_sentences,1
3511,,22967,25,Spannendes Experiment. Ich bin gespannt auf die Ergebnisse!,male,Abitur,1655314540506,302,weiblich,25,deutsch,2,NA,NA,NA,1,"Bei einer Vernissage stellen Künstler ihre aktuellen Werke vor. <br /> ____ präsentiert stolz eine neue Technik, die Gips und Sand auf eine einzigartige Art und Weise  miteinander verbindet. <br /><br /> Bitte schreibe einen passenden Namen in das Feld.",Marlon,Künstler*innen,,Wed Jun 15 2022 19:13:52 GMT+0200 (Mitteleuropäische Sommerzeit),1655313232146,neutral,21.806,filler_sentences,1
3511,,18346,25,Spannendes Experiment. Ich bin gespannt auf die Ergebnisse!,female,Abitur,1655314540506,302,weiblich,11,deutsch,2,NA,NA,NA,1,Autorinnen von Liebesromanen wird oft ein Hang zur Dramatik nachgesagt.<br /> ___________ lässt Geschichten deshalb stets mit einem Happy End enden. <br /><br /> Bitte schreibe einen passenden Namen in das Feld.,Anne,Autor*innen von Liebesromanen,,Wed Jun 15 2022 19:13:52 GMT+0200 (Mitteleuropäische Sommerzeit),1655313232146,female,21.806,filler_sentences,1
3511,,14109,25,Spannendes Experiment. Ich bin gespannt auf die Ergebnisse!,male,Abitur,1655314540506,302,weiblich,13,deutsch,2,NA,NA,NA,1,"Um sich auf die Zeit im All vorzubereiten, müssen Astronauten eine spezielle Schulung durchlaufen. <br /> __________ fällt es schwer, sich an die Trockennahrung zu gewöhnen. <br /><br /> Bitte schreibe einen passenden Namen in das Feld.",Tristan,Astronaut*innen,,Wed Jun 15 2022 19:13:52 GMT+0200 (Mitteleuropäische Sommerzeit),1655313232146,male,21.806,filler_sentences,1
3511,,26702,25,Spannendes Experiment. Ich bin gespannt auf die Ergebnisse!,gender-neutral,Abitur,1655314540506,302,weiblich,4,deutsch,2,NA,NA,NA,1,Ernährungsberater*innen empfehlen die Einnahme von Vitaminpräparaten. <br />___________ hält Vitamin D im Winter für besonders wichtig. <br /> <br /> Bitte schreibe einen passenden Namen in das Feld.,Boris,Ernährungsberater*innen,,Wed Jun 15 2022 19:13:52 GMT+0200 (Mitteleuropäische Sommerzeit),1655313232146,female,21.806,filler_sentences,1
3511,,22044,25,Spannendes Experiment. Ich bin gespannt auf die Ergebnisse!,female,Abitur,1655314540506,302,weiblich,34,deutsch,2,NA,NA,NA,1,"Die Relevanz von politischen Aktivistinnen nimmt immer mehr zu. <br /> ____ geht jede Woche auf die Straße, um für den Klimaschutz zu demonstrieren. <br /><br /> Bitte schreibe einen passenden Namen in das Feld.",Ronja,Aktivist*innen,,Wed Jun 15 2022 19:13:52 GMT+0200 (Mitteleuropäische Sommerzeit),1655313232146,neutral,21.806,filler_sentences,1
3511,,29698,25,Spannendes Experiment. Ich bin gespannt auf die Ergebnisse!,female,Abitur,1655314540506,302,weiblich,10,deutsch,2,NA,NA,NA,1,"Um den Unterricht möglichst abwechslungsreich zu gestalten, nutzen Grundschullehrerinnen gerne verschiedene Medien.<br /> __________ verwendet am liebsten das Whiteboard, um Inhalte zu visualisieren. <br /><br /> Bitte schreibe einen passenden Namen in das Feld.",Miriam,Grundschullehrer*innen,,Wed Jun 15 2022 19:13:52 GMT+0200 (Mitteleuropäische Sommerzeit),1655313232146,female,21.806,filler_sentences,1
3511,NA,NA,25,Spannendes Experiment. Ich bin gespannt auf die Ergebnisse!,NA,Abitur,1655314540506,302,weiblich,NA,deutsch,NA,NA,NA,NA,NA,NA,first,NA,,Wed Jun 15 2022 19:13:52 GMT+0200 (Mitteleuropäische Sommerzeit),1655313232146,NA,21.806,name_check,1
3511,NA,NA,25,Spannendes Experiment. Ich bin gespannt auf die Ergebnisse!,NA,Abitur,1655314540506,302,weiblich,NA,deutsch,NA,NA,NA,NA,NA,NA,second,NA,,Wed Jun 15 2022 19:13:52 GMT+0200 (Mitteleuropäische Sommerzeit),1655313232146,NA,21.806,name_check,2
3511,NA,NA,25,Spannendes Experiment. Ich bin gespannt auf die Ergebnisse!,NA,Abitur,1655314540506,302,weiblich,NA,deutsch,NA,NA,NA,NA,NA,NA,first,NA,,Wed Jun 15 2022 19:13:52 GMT+0200 (Mitteleuropäische Sommerzeit),1655313232146,NA,21.806,name_check,3
3511,NA,NA,25,Spannendes Experiment. Ich bin gespannt auf die Ergebnisse!,NA,Abitur,1655314540506,302,weiblich,NA,deutsch,NA,NA,NA,NA,NA,NA,first,NA,,Wed Jun 15 2022 19:13:52 GMT+0200 (Mitteleuropäische Sommerzeit),1655313232146,NA,21.806,name_check,4
3511,NA,NA,25,Spannendes Experiment. Ich bin gespannt auf die Ergebnisse!,NA,Abitur,1655314540506,302,weiblich,NA,deutsch,NA,NA,NA,NA,NA,NA,second,NA,,Wed Jun 15 2022 19:13:52 GMT+0200 (Mitteleuropäische Sommerzeit),1655313232146,NA,21.806,name_check,5
3511,NA,NA,25,Spannendes Experiment. Ich bin gespannt auf die Ergebnisse!,NA,Abitur,1655314540506,302,weiblich,NA,deutsch,NA,NA,NA,NA,NA,NA,first,NA,,Wed Jun 15 2022 19:13:52 GMT+0200 (Mitteleuropäische Sommerzeit),1655313232146,NA,21.806,name_check,6
3511,NA,NA,25,Spannendes Experiment. Ich bin gespannt auf die Ergebnisse!,NA,Abitur,1655314540506,302,weiblich,NA,deutsch,NA,NA,NA,NA,NA,NA,second,NA,,Wed Jun 15 2022 19:13:52 GMT+0200 (Mitteleuropäische Sommerzeit),1655313232146,NA,21.806,name_check,7
3511,NA,NA,25,Spannendes Experiment. Ich bin gespannt auf die Ergebnisse!,NA,Abitur,1655314540506,302,weiblich,NA,deutsch,NA,NA,NA,NA,NA,NA,first,NA,,Wed Jun 15 2022 19:13:52 GMT+0200 (Mitteleuropäische Sommerzeit),1655313232146,NA,21.806,name_check,8
3511,NA,NA,25,Spannendes Experiment. Ich bin gespannt auf die Ergebnisse!,NA,Abitur,1655314540506,302,weiblich,NA,deutsch,NA,NA,NA,NA,NA,NA,second,NA,,Wed Jun 15 2022 19:13:52 GMT+0200 (Mitteleuropäische Sommerzeit),1655313232146,NA,21.806,name_check,9
3511,NA,NA,25,Spannendes Experiment. Ich bin gespannt auf die Ergebnisse!,NA,Abitur,1655314540506,302,weiblich,NA,deutsch,NA,NA,NA,NA,NA,NA,second,NA,,Wed Jun 15 2022 19:13:52 GMT+0200 (Mitteleuropäische Sommerzeit),1655313232146,NA,21.806,name_check,10
3511,NA,NA,25,Spannendes Experiment. Ich bin gespannt auf die Ergebnisse!,NA,Abitur,1655314540506,302,weiblich,NA,deutsch,NA,NA,NA,NA,NA,NA,first,NA,,Wed Jun 15 2022 19:13:52 GMT+0200 (Mitteleuropäische Sommerzeit),1655313232146,NA,21.806,name_check,11
3511,NA,NA,25,Spannendes Experiment. Ich bin gespannt auf die Ergebnisse!,NA,Abitur,1655314540506,302,weiblich,NA,deutsch,NA,NA,NA,NA,NA,NA,second,NA,,Wed Jun 15 2022 19:13:52 GMT+0200 (Mitteleuropäische Sommerzeit),1655313232146,NA,21.806,name_check,12
3511,NA,NA,25,Spannendes Experiment. Ich bin gespannt auf die Ergebnisse!,NA,Abitur,1655314540506,302,weiblich,NA,deutsch,NA,NA,NA,NA,NA,NA,second,NA,,Wed Jun 15 2022 19:13:52 GMT+0200 (Mitteleuropäische Sommerzeit),1655313232146,NA,21.806,name_check,13
3511,NA,NA,25,Spannendes Experiment. Ich bin gespannt auf die Ergebnisse!,NA,Abitur,1655314540506,302,weiblich,NA,deutsch,NA,NA,NA,NA,NA,NA,first,NA,,Wed Jun 15 2022 19:13:52 GMT+0200 (Mitteleuropäische Sommerzeit),1655313232146,NA,21.806,name_check,14
3511,NA,NA,25,Spannendes Experiment. Ich bin gespannt auf die Ergebnisse!,NA,Abitur,1655314540506,302,weiblich,NA,deutsch,NA,NA,NA,NA,NA,NA,first,NA,,Wed Jun 15 2022 19:13:52 GMT+0200 (Mitteleuropäische Sommerzeit),1655313232146,NA,21.806,name_check,15
3511,NA,NA,25,Spannendes Experiment. Ich bin gespannt auf die Ergebnisse!,NA,Abitur,1655314540506,302,weiblich,NA,deutsch,NA,NA,NA,NA,NA,NA,first,NA,,Wed Jun 15 2022 19:13:52 GMT+0200 (Mitteleuropäische Sommerzeit),1655313232146,NA,21.806,name_check,16
3511,NA,NA,25,Spannendes Experiment. Ich bin gespannt auf die Ergebnisse!,NA,Abitur,1655314540506,302,weiblich,NA,deutsch,NA,NA,NA,NA,NA,NA,first,NA,,Wed Jun 15 2022 19:13:52 GMT+0200 (Mitteleuropäische Sommerzeit),1655313232146,NA,21.806,name_check,17
3511,NA,NA,25,Spannendes Experiment. Ich bin gespannt auf die Ergebnisse!,NA,Abitur,1655314540506,302,weiblich,NA,deutsch,NA,NA,NA,NA,NA,NA,second,NA,,Wed Jun 15 2022 19:13:52 GMT+0200 (Mitteleuropäische Sommerzeit),1655313232146,NA,21.806,name_check,18
3511,NA,NA,25,Spannendes Experiment. Ich bin gespannt auf die Ergebnisse!,NA,Abitur,1655314540506,302,weiblich,NA,deutsch,NA,NA,NA,NA,NA,NA,second,NA,,Wed Jun 15 2022 19:13:52 GMT+0200 (Mitteleuropäische Sommerzeit),1655313232146,NA,21.806,name_check,19
3511,NA,NA,25,Spannendes Experiment. Ich bin gespannt auf die Ergebnisse!,NA,Abitur,1655314540506,302,weiblich,NA,deutsch,NA,NA,NA,NA,NA,NA,first,NA,,Wed Jun 15 2022 19:13:52 GMT+0200 (Mitteleuropäische Sommerzeit),1655313232146,NA,21.806,name_check,20
3511,NA,NA,25,Spannendes Experiment. Ich bin gespannt auf die Ergebnisse!,NA,Abitur,1655314540506,302,weiblich,NA,deutsch,NA,NA,NA,NA,NA,NA,second,NA,,Wed Jun 15 2022 19:13:52 GMT+0200 (Mitteleuropäische Sommerzeit),1655313232146,NA,21.806,name_check,21
3511,NA,NA,25,Spannendes Experiment. Ich bin gespannt auf die Ergebnisse!,NA,Abitur,1655314540506,302,weiblich,NA,deutsch,NA,NA,NA,NA,NA,NA,second,NA,,Wed Jun 15 2022 19:13:52 GMT+0200 (Mitteleuropäische Sommerzeit),1655313232146,NA,21.806,name_check,22
3511,NA,NA,25,Spannendes Experiment. Ich bin gespannt auf die Ergebnisse!,NA,Abitur,1655314540506,302,weiblich,NA,deutsch,NA,NA,NA,NA,NA,NA,second,NA,,Wed Jun 15 2022 19:13:52 GMT+0200 (Mitteleuropäische Sommerzeit),1655313232146,NA,21.806,name_check,23
3511,NA,NA,25,Spannendes Experiment. Ich bin gespannt auf die Ergebnisse!,NA,Abitur,1655314540506,302,weiblich,NA,deutsch,NA,NA,NA,NA,NA,NA,second,NA,,Wed Jun 15 2022 19:13:52 GMT+0200 (Mitteleuropäische Sommerzeit),1655313232146,NA,21.806,name_check,24
3511,NA,NA,25,Spannendes Experiment. Ich bin gespannt auf die Ergebnisse!,NA,Abitur,1655314540506,302,weiblich,NA,deutsch,NA,NA,NA,NA,NA,NA,first,NA,,Wed Jun 15 2022 19:13:52 GMT+0200 (Mitteleuropäische Sommerzeit),1655313232146,NA,21.806,name_check,25
3511,NA,NA,25,Spannendes Experiment. Ich bin gespannt auf die Ergebnisse!,NA,Abitur,1655314540506,302,weiblich,NA,deutsch,NA,NA,NA,NA,NA,NA,first,NA,,Wed Jun 15 2022 19:13:52 GMT+0200 (Mitteleuropäische Sommerzeit),1655313232146,NA,21.806,name_check,26
3511,NA,NA,25,Spannendes Experiment. Ich bin gespannt auf die Ergebnisse!,NA,Abitur,1655314540506,302,weiblich,NA,deutsch,NA,NA,NA,NA,NA,NA,first,NA,,Wed Jun 15 2022 19:13:52 GMT+0200 (Mitteleuropäische Sommerzeit),1655313232146,NA,21.806,name_check,27
3511,NA,NA,25,Spannendes Experiment. Ich bin gespannt auf die Ergebnisse!,NA,Abitur,1655314540506,302,weiblich,NA,deutsch,NA,NA,NA,NA,NA,NA,first,NA,,Wed Jun 15 2022 19:13:52 GMT+0200 (Mitteleuropäische Sommerzeit),1655313232146,NA,21.806,name_check,28
3511,NA,NA,25,Spannendes Experiment. Ich bin gespannt auf die Ergebnisse!,NA,Abitur,1655314540506,302,weiblich,NA,deutsch,NA,NA,NA,NA,NA,NA,first,NA,,Wed Jun 15 2022 19:13:52 GMT+0200 (Mitteleuropäische Sommerzeit),1655313232146,NA,21.806,name_check,29
3511,NA,NA,25,Spannendes Experiment. Ich bin gespannt auf die Ergebnisse!,NA,Abitur,1655314540506,302,weiblich,NA,deutsch,NA,NA,NA,NA,NA,NA,second,NA,,Wed Jun 15 2022 19:13:52 GMT+0200 (Mitteleuropäische Sommerzeit),1655313232146,NA,21.806,name_check,30
3511,NA,NA,25,Spannendes Experiment. Ich bin gespannt auf die Ergebnisse!,NA,Abitur,1655314540506,302,weiblich,NA,deutsch,NA,NA,NA,NA,NA,NA,second,NA,,Wed Jun 15 2022 19:13:52 GMT+0200 (Mitteleuropäische Sommerzeit),1655313232146,NA,21.806,name_check,31
3511,NA,NA,25,Spannendes Experiment. Ich bin gespannt auf die Ergebnisse!,NA,Abitur,1655314540506,302,weiblich,NA,deutsch,NA,NA,NA,NA,NA,NA,first,NA,,Wed Jun 15 2022 19:13:52 GMT+0200 (Mitteleuropäische Sommerzeit),1655313232146,NA,21.806,name_check,32
3511,NA,NA,25,Spannendes Experiment. Ich bin gespannt auf die Ergebnisse!,NA,Abitur,1655314540506,302,weiblich,NA,deutsch,NA,NA,NA,NA,NA,NA,second,NA,,Wed Jun 15 2022 19:13:52 GMT+0200 (Mitteleuropäische Sommerzeit),1655313232146,NA,21.806,name_check,33
3511,NA,NA,25,Spannendes Experiment. Ich bin gespannt auf die Ergebnisse!,NA,Abitur,1655314540506,302,weiblich,NA,deutsch,NA,NA,NA,NA,NA,NA,second,NA,,Wed Jun 15 2022 19:13:52 GMT+0200 (Mitteleuropäische Sommerzeit),1655313232146,NA,21.806,name_check,34
3511,NA,NA,25,Spannendes Experiment. Ich bin gespannt auf die Ergebnisse!,NA,Abitur,1655314540506,302,weiblich,NA,deutsch,NA,NA,NA,NA,NA,NA,first,NA,,Wed Jun 15 2022 19:13:52 GMT+0200 (Mitteleuropäische Sommerzeit),1655313232146,NA,21.806,name_check,35
3511,NA,NA,25,Spannendes Experiment. Ich bin gespannt auf die Ergebnisse!,NA,Abitur,1655314540506,302,weiblich,NA,deutsch,NA,NA,NA,NA,NA,NA,first,NA,,Wed Jun 15 2022 19:13:52 GMT+0200 (Mitteleuropäische Sommerzeit),1655313232146,NA,21.806,name_check,36
3511,,3062,25,Spannendes Experiment. Ich bin gespannt auf die Ergebnisse!,NA,Abitur,1655314540506,302,weiblich,29,deutsch,NA,Männlich,Neutral,Weiblich,3,<strong>Journalist*innen</strong> <br /> Mit welchem Geschlecht würdest du dieses Wort am ehesten assoziieren?,Neutral,Journalist*innen,,Wed Jun 15 2022 19:13:52 GMT+0200 (Mitteleuropäische Sommerzeit),1655313232146,neutral,21.806,forced_choice_3A,1
3511,,1343,25,Spannendes Experiment. Ich bin gespannt auf die Ergebnisse!,NA,Abitur,1655314540506,302,weiblich,25,deutsch,NA,Männlich,Neutral,Weiblich,3,<strong>Künstler*innen</strong> <br /> Mit welchem Geschlecht würdest du dieses Wort am ehesten assoziieren?,Neutral,Künstler*innen,,Wed Jun 15 2022 19:13:52 GMT+0200 (Mitteleuropäische Sommerzeit),1655313232146,neutral,21.806,forced_choice_3A,2
3511,,1330,25,Spannendes Experiment. Ich bin gespannt auf die Ergebnisse!,NA,Abitur,1655314540506,302,weiblich,19,deutsch,NA,Männlich,Neutral,Weiblich,3,<strong>Pilot*innen</strong> <br /> Mit welchem Geschlecht würdest du dieses Wort am ehesten assoziieren?,Neutral,Pilot*innen,,Wed Jun 15 2022 19:13:52 GMT+0200 (Mitteleuropäische Sommerzeit),1655313232146,male,21.806,forced_choice_3A,3
3511,,1617,25,Spannendes Experiment. Ich bin gespannt auf die Ergebnisse!,NA,Abitur,1655314540506,302,weiblich,7,deutsch,NA,Männlich,Neutral,Weiblich,3,<strong>Friseur*innen</strong> <br /> Mit welchem Geschlecht würdest du dieses Wort am ehesten assoziieren?,Neutral,Friseur*innen,,Wed Jun 15 2022 19:13:52 GMT+0200 (Mitteleuropäische Sommerzeit),1655313232146,female,21.806,forced_choice_3A,4
3511,,1689,25,Spannendes Experiment. Ich bin gespannt auf die Ergebnisse!,NA,Abitur,1655314540506,302,weiblich,1,deutsch,NA,Männlich,Neutral,Weiblich,3,<strong> Babysiter*innen </strong> <br /> <br /> Mit welchem Geschlecht würdest du dieses Wort am ehesten assoziieren?,Neutral,Babysitter*innen,,Wed Jun 15 2022 19:13:52 GMT+0200 (Mitteleuropäische Sommerzeit),1655313232146,female,21.806,forced_choice_3A,5
3511,,1540,25,Spannendes Experiment. Ich bin gespannt auf die Ergebnisse!,NA,Abitur,1655314540506,302,weiblich,20,deutsch,NA,Männlich,Neutral,Weiblich,3,<strong>Präsident*innen</strong> <br /> Mit welchem Geschlecht würdest du dieses Wort am ehesten assoziieren?,Neutral,Präsident*innen,,Wed Jun 15 2022 19:13:52 GMT+0200 (Mitteleuropäische Sommerzeit),1655313232146,male,21.806,forced_choice_3A,6
3511,,1462,25,Spannendes Experiment. Ich bin gespannt auf die Ergebnisse!,NA,Abitur,1655314540506,302,weiblich,17,deutsch,NA,Männlich,Neutral,Weiblich,3,<strong>Bürgermeister*innen</strong> <br /> Mit welchem Geschlecht würdest du dieses Wort am ehesten assoziieren?,Neutral,Bürgermeister*innen,,Wed Jun 15 2022 19:13:52 GMT+0200 (Mitteleuropäische Sommerzeit),1655313232146,male,21.806,forced_choice_3A,7
3511,,1851,25,Spannendes Experiment. Ich bin gespannt auf die Ergebnisse!,NA,Abitur,1655314540506,302,weiblich,11,deutsch,NA,Männlich,Neutral,Weiblich,3,<strong>Autor*innen von Liebesromanen</strong> <br /> Mit welchem Geschlecht würdest du dieses Wort am ehesten assoziieren?,Neutral,Autor*innen von Liebesromanen,,Wed Jun 15 2022 19:13:52 GMT+0200 (Mitteleuropäische Sommerzeit),1655313232146,female,21.806,forced_choice_3A,8
3511,,1982,25,Spannendes Experiment. Ich bin gespannt auf die Ergebnisse!,NA,Abitur,1655314540506,302,weiblich,35,deutsch,NA,Männlich,Neutral,Weiblich,3,<strong>Psychiater*innen</strong> <br /> Mit welchem Geschlecht würdest du dieses Wort am ehesten assoziieren?,Neutral,Psychiater*innen,,Wed Jun 15 2022 19:13:52 GMT+0200 (Mitteleuropäische Sommerzeit),1655313232146,neutral,21.806,forced_choice_3A,9
3511,,1347,25,Spannendes Experiment. Ich bin gespannt auf die Ergebnisse!,NA,Abitur,1655314540506,302,weiblich,30,deutsch,NA,Männlich,Neutral,Weiblich,3,<strong>Mieter*innen</strong> <br /> Mit welchem Geschlecht würdest du dieses Wort am ehesten assoziieren?,Neutral,Mieter*innen,,Wed Jun 15 2022 19:13:52 GMT+0200 (Mitteleuropäische Sommerzeit),1655313232146,neutral,21.806,forced_choice_3A,10
3511,,1491,25,Spannendes Experiment. Ich bin gespannt auf die Ergebnisse!,NA,Abitur,1655314540506,302,weiblich,22,deutsch,NA,Männlich,Neutral,Weiblich,3,<strong>Soldat*innen</strong> <br /> Mit welchem Geschlecht würdest du dieses Wort am ehesten assoziieren?,Neutral,Soldat*innen,,Wed Jun 15 2022 19:13:52 GMT+0200 (Mitteleuropäische Sommerzeit),1655313232146,male,21.806,forced_choice_3A,11
3511,,1241,25,Spannendes Experiment. Ich bin gespannt auf die Ergebnisse!,NA,Abitur,1655314540506,302,weiblich,27,deutsch,NA,Männlich,Neutral,Weiblich,3,<strong>Hundehalter*innen</strong> <br /> Mit welchem Geschlecht würdest du dieses Wort am ehesten assoziieren?,Neutral,Hundehalter*innen,,Wed Jun 15 2022 19:13:52 GMT+0200 (Mitteleuropäische Sommerzeit),1655313232146,neutral,21.806,forced_choice_3A,12
3511,,3230,25,Spannendes Experiment. Ich bin gespannt auf die Ergebnisse!,NA,Abitur,1655314540506,302,weiblich,2,deutsch,NA,Männlich,Neutral,Weiblich,3,<strong>Balletttänzer*innen</strong> <br /> Mit welchem Geschlecht würdest du dieses Wort am ehesten assoziieren?,Neutral,Balletttänzer*innen,,Wed Jun 15 2022 19:13:52 GMT+0200 (Mitteleuropäische Sommerzeit),1655313232146,female,21.806,forced_choice_3A,13
3511,,1588,25,Spannendes Experiment. Ich bin gespannt auf die Ergebnisse!,NA,Abitur,1655314540506,302,weiblich,18,deutsch,NA,Männlich,Neutral,Weiblich,3,<strong>Mörder*innen</strong> <br /> Mit welchem Geschlecht würdest du dieses Wort am ehesten assoziieren?,Neutral,Mörder*innen,,Wed Jun 15 2022 19:13:52 GMT+0200 (Mitteleuropäische Sommerzeit),1655313232146,male,21.806,forced_choice_3A,14
3511,,1278,25,Spannendes Experiment. Ich bin gespannt auf die Ergebnisse!,NA,Abitur,1655314540506,302,weiblich,32,deutsch,NA,Männlich,Neutral,Weiblich,3,<strong>Fotograf*innen</strong> <br /> Mit welchem Geschlecht würdest du dieses Wort am ehesten assoziieren?,Neutral,Fotograf*innen,,Wed Jun 15 2022 19:13:52 GMT+0200 (Mitteleuropäische Sommerzeit),1655313232146,neutral,21.806,forced_choice_3A,15
3511,,1054,25,Spannendes Experiment. Ich bin gespannt auf die Ergebnisse!,NA,Abitur,1655314540506,302,weiblich,5,deutsch,NA,Männlich,Neutral,Weiblich,3,<strong>Florist*innen</strong> <br /> Mit welchem Geschlecht würdest du dieses Wort am ehesten assoziieren?,Neutral,Florist*innen,,Wed Jun 15 2022 19:13:52 GMT+0200 (Mitteleuropäische Sommerzeit),1655313232146,female,21.806,forced_choice_3A,16
3511,,1040,25,Spannendes Experiment. Ich bin gespannt auf die Ergebnisse!,NA,Abitur,1655314540506,302,weiblich,28,deutsch,NA,Männlich,Neutral,Weiblich,3,<strong>Immobilienmakler*innen</strong> <br /> Mit welchem Geschlecht würdest du dieses Wort am ehesten assoziieren?,Neutral,Immobilienmakler*innen,,Wed Jun 15 2022 19:13:52 GMT+0200 (Mitteleuropäische Sommerzeit),1655313232146,neutral,21.806,forced_choice_3A,17
3511,,935,25,Spannendes Experiment. Ich bin gespannt auf die Ergebnisse!,NA,Abitur,1655314540506,302,weiblich,31,deutsch,NA,Männlich,Neutral,Weiblich,3,<strong>Patient*innen</strong> <br /> Mit welchem Geschlecht würdest du dieses Wort am ehesten assoziieren?,Neutral,Patient*innen,,Wed Jun 15 2022 19:13:52 GMT+0200 (Mitteleuropäische Sommerzeit),1655313232146,neutral,21.806,forced_choice_3A,18
3511,,937,25,Spannendes Experiment. Ich bin gespannt auf die Ergebnisse!,NA,Abitur,1655314540506,302,weiblich,15,deutsch,NA,Männlich,Neutral,Weiblich,3,<strong>Programmierer*innen</strong> <br /> Mit welchem Geschlecht würdest du dieses Wort am ehesten assoziieren?,Neutral,Programmierer*innen,,Wed Jun 15 2022 19:13:52 GMT+0200 (Mitteleuropäische Sommerzeit),1655313232146,male,21.806,forced_choice_3A,19
3511,,887,25,Spannendes Experiment. Ich bin gespannt auf die Ergebnisse!,NA,Abitur,1655314540506,302,weiblich,8,deutsch,NA,Männlich,Neutral,Weiblich,3,<strong>Haushälter*innen</strong> <br /> Mit welchem Geschlecht würdest du dieses Wort am ehesten assoziieren?,Neutral,Haushälter*innen,,Wed Jun 15 2022 19:13:52 GMT+0200 (Mitteleuropäische Sommerzeit),1655313232146,female,21.806,forced_choice_3A,20
3511,,889,25,Spannendes Experiment. Ich bin gespannt auf die Ergebnisse!,NA,Abitur,1655314540506,302,weiblich,3,deutsch,NA,Männlich,Neutral,Weiblich,3,<strong>Kassierer*innen</strong> <br /> Mit welchem Geschlecht würdest du dieses Wort am ehesten assoziieren?,Neutral,Kassierer*innen,,Wed Jun 15 2022 19:13:52 GMT+0200 (Mitteleuropäische Sommerzeit),1655313232146,female,21.806,forced_choice_3A,21
3511,,846,25,Spannendes Experiment. Ich bin gespannt auf die Ergebnisse!,NA,Abitur,1655314540506,302,weiblich,14,deutsch,NA,Männlich,Neutral,Weiblich,3,<strong>Metzger*innen</strong> <br /> Mit welchem Geschlecht würdest du dieses Wort am ehesten assoziieren?,Neutral,Metzger*innen,,Wed Jun 15 2022 19:13:52 GMT+0200 (Mitteleuropäische Sommerzeit),1655313232146,male,21.806,forced_choice_3A,22
3511,,858,25,Spannendes Experiment. Ich bin gespannt auf die Ergebnisse!,NA,Abitur,1655314540506,302,weiblich,4,deutsch,NA,Männlich,Neutral,Weiblich,3,<strong>Ernährungsberater*innen</strong> <br /> Mit welchem Geschlecht würdest du dieses Wort am ehesten assoziieren?,Neutral,Ernährungsberater*innen,,Wed Jun 15 2022 19:13:52 GMT+0200 (Mitteleuropäische Sommerzeit),1655313232146,female,21.806,forced_choice_3A,23
3511,,808,25,Spannendes Experiment. Ich bin gespannt auf die Ergebnisse!,NA,Abitur,1655314540506,302,weiblich,12,deutsch,NA,Männlich,Neutral,Weiblich,3,<strong>Schneider*innen</strong> <br /> Mit welchem Geschlecht würdest du dieses Wort am ehesten assoziieren?,Neutral,Schneider*innen,,Wed Jun 15 2022 19:13:52 GMT+0200 (Mitteleuropäische Sommerzeit),1655313232146,female,21.806,forced_choice_3A,24
3511,,1186,25,Spannendes Experiment. Ich bin gespannt auf die Ergebnisse!,NA,Abitur,1655314540506,302,weiblich,33,deutsch,NA,Männlich,Neutral,Weiblich,3,<strong>Mediziner*innen</strong> <br /> Mit welchem Geschlecht würdest du dieses Wort am ehesten assoziieren?,Neutral,Mediziner*innen,,Wed Jun 15 2022 19:13:52 GMT+0200 (Mitteleuropäische Sommerzeit),1655313232146,neutral,21.806,forced_choice_3A,25
3511,,866,25,Spannendes Experiment. Ich bin gespannt auf die Ergebnisse!,NA,Abitur,1655314540506,302,weiblich,9,deutsch,NA,Männlich,Neutral,Weiblich,3,<strong>Kindergärtner*innen</strong> <br /> Mit welchem Geschlecht würdest du dieses Wort am ehesten assoziieren?,Neutral,Kindergärtner*innen,,Wed Jun 15 2022 19:13:52 GMT+0200 (Mitteleuropäische Sommerzeit),1655313232146,female,21.806,forced_choice_3A,26
3511,,766,25,Spannendes Experiment. Ich bin gespannt auf die Ergebnisse!,NA,Abitur,1655314540506,302,weiblich,13,deutsch,NA,Männlich,Neutral,Weiblich,3,<strong>Astronaut*innen</strong> <br /> Mit welchem Geschlecht würdest du dieses Wort am ehesten assoziieren?,Neutral,Astronaut*innen,,Wed Jun 15 2022 19:13:52 GMT+0200 (Mitteleuropäische Sommerzeit),1655313232146,male,21.806,forced_choice_3A,27
3511,,840,25,Spannendes Experiment. Ich bin gespannt auf die Ergebnisse!,NA,Abitur,1655314540506,302,weiblich,21,deutsch,NA,Männlich,Neutral,Weiblich,3,<strong>Privatdetektiv*innen</strong> <br /> Mit welchem Geschlecht würdest du dieses Wort am ehesten assoziieren?,Neutral,Privatdetektiv*innen,,Wed Jun 15 2022 19:13:52 GMT+0200 (Mitteleuropäische Sommerzeit),1655313232146,male,21.806,forced_choice_3A,28
3511,,955,25,Spannendes Experiment. Ich bin gespannt auf die Ergebnisse!,NA,Abitur,1655314540506,302,weiblich,26,deutsch,NA,Männlich,Neutral,Weiblich,3,<strong>Sportler*innen</strong> <br /> Mit welchem Geschlecht würdest du dieses Wort am ehesten assoziieren?,Neutral,Sportler*innen,,Wed Jun 15 2022 19:13:52 GMT+0200 (Mitteleuropäische Sommerzeit),1655313232146,neutral,21.806,forced_choice_3A,29
3511,,973,25,Spannendes Experiment. Ich bin gespannt auf die Ergebnisse!,NA,Abitur,1655314540506,302,weiblich,16,deutsch,NA,Männlich,Neutral,Weiblich,3,<strong>Manager*innen</strong> <br /> Mit welchem Geschlecht würdest du dieses Wort am ehesten assoziieren?,Neutral,Manager*innen,,Wed Jun 15 2022 19:13:52 GMT+0200 (Mitteleuropäische Sommerzeit),1655313232146,male,21.806,forced_choice_3A,30
3511,,931,25,Spannendes Experiment. Ich bin gespannt auf die Ergebnisse!,NA,Abitur,1655314540506,302,weiblich,34,deutsch,NA,Männlich,Neutral,Weiblich,3,<strong>politische Aktivist*innen</strong> <br /> Mit welchem Geschlecht würdest du dieses Wort am ehesten assoziieren?,Neutral,politische Aktivist*innen,,Wed Jun 15 2022 19:13:52 GMT+0200 (Mitteleuropäische Sommerzeit),1655313232146,neutral,21.806,forced_choice_3A,31
3511,,909,25,Spannendes Experiment. Ich bin gespannt auf die Ergebnisse!,NA,Abitur,1655314540506,302,weiblich,23,deutsch,NA,Männlich,Neutral,Weiblich,3,<strong>Chirgur*innen</strong> <br /> Mit welchem Geschlecht würdest du dieses Wort am ehesten assoziieren?,Neutral,Chirgur*innen,,Wed Jun 15 2022 19:13:52 GMT+0200 (Mitteleuropäische Sommerzeit),1655313232146,male,21.806,forced_choice_3A,32
3511,,1094,25,Spannendes Experiment. Ich bin gespannt auf die Ergebnisse!,NA,Abitur,1655314540506,302,weiblich,6,deutsch,NA,Männlich,Neutral,Weiblich,3,<strong>Flugbegleiter*innen</strong> <br /> Mit welchem Geschlecht würdest du dieses Wort am ehesten assoziieren?,Neutral,Flugbegleiter*innen,,Wed Jun 15 2022 19:13:52 GMT+0200 (Mitteleuropäische Sommerzeit),1655313232146,female,21.806,forced_choice_3A,33
3511,,848,25,Spannendes Experiment. Ich bin gespannt auf die Ergebnisse!,NA,Abitur,1655314540506,302,weiblich,10,deutsch,NA,Männlich,Neutral,Weiblich,3,<strong>Grundschullehrer*innen</strong> <br /> Mit welchem Geschlecht würdest du dieses Wort am ehesten assoziieren?,Neutral,Grundschullehrer*innen,,Wed Jun 15 2022 19:13:52 GMT+0200 (Mitteleuropäische Sommerzeit),1655313232146,female,21.806,forced_choice_3A,34
3511,,3020,25,Spannendes Experiment. Ich bin gespannt auf die Ergebnisse!,NA,Abitur,1655314540506,302,weiblich,24,deutsch,NA,Männlich,Neutral,Weiblich,3,<strong>Taxifahrer*innen</strong> <br /> Mit welchem Geschlecht würdest du dieses Wort am ehesten assoziieren?,Neutral,Taxifahrer*innen,,Wed Jun 15 2022 19:13:52 GMT+0200 (Mitteleuropäische Sommerzeit),1655313232146,male,21.806,forced_choice_3A,35
3511,,852,25,Spannendes Experiment. Ich bin gespannt auf die Ergebnisse!,NA,Abitur,1655314540506,302,weiblich,36,deutsch,NA,Männlich,Neutral,Weiblich,3,<strong>Student*innen</strong> <br /> Mit welchem Geschlecht würdest du dieses Wort am ehesten assoziieren?,Neutral,Student*innen,,Wed Jun 15 2022 19:13:52 GMT+0200 (Mitteleuropäische Sommerzeit),1655313232146,neutral,21.806,forced_choice_3A,36
3510,,16915,23,,male,Abitur,1655314096239,302,weiblich,32,Deutsch,2,NA,NA,NA,1,"Fotografen werden häufig für große Hochzeiten engagiert. <br /> ____ fotografiert dabei am liebsten spontane Momente, die nicht gestellt sind. <br /><br /> Bitte schreibe einen passenden Namen in das Feld.",Torsten,Fotograf*innen,,Wed Jun 15 2022 19:18:42 GMT+0200 (Mitteleuropäische Sommerzeit),1655313522132,neutral,9.56845,filler_sentences,1
3510,,6156,23,,female,Abitur,1655314096239,302,weiblich,3,Deutsch,2,NA,NA,NA,1,Der Arbeitsalltag von Kassiererinnen ist sehr anstrengend. <br /> ____________ muss jeden Morgen um fünf Uhr aufstehen. <br /> <br />Bitte schreibe einen passenden Namen in das Feld.,Daniela,Kassierer*innen,,Wed Jun 15 2022 19:18:42 GMT+0200 (Mitteleuropäische Sommerzeit),1655313522132,female,9.56845,filler_sentences,1
3510,,12964,23,,gender-neutral,Abitur,1655314096239,302,weiblich,21,Deutsch,2,NA,NA,NA,1,Eine erfolgreiche TV-Serie berichtet über die spannende Arbeit von Privatdetektiv*innen. <br />	____ arbeitet schon seit langem in einer Detektei und ärgert sich über die unauthentische Darstellung des Berufes. <br /><br /> Bitte schreibe einen passenden Namen in das Feld.,Mirko,Privatdetektiv*innen,,Wed Jun 15 2022 19:18:42 GMT+0200 (Mitteleuropäische Sommerzeit),1655313522132,male,9.56845,filler_sentences,1
3510,,9957,23,,male,Abitur,1655314096239,302,weiblich,7,Deutsch,2,NA,NA,NA,1,Bei den ganzen neuen Trends kommen Friseure kaum noch hinterher.<br /> __________ schneidet am liebsten klassische Frisuren. <br /><br /> Bitte schreibe einen passenden Namen in das Feld.,Gaby,Friseur*innen,,Wed Jun 15 2022 19:18:42 GMT+0200 (Mitteleuropäische Sommerzeit),1655313522132,female,9.56845,filler_sentences,1
3510,,7579,23,,gender-neutral,Abitur,1655314096239,302,weiblich,14,Deutsch,2,NA,NA,NA,1,Seit einiger Zeit nehmen Metzger*innen auch vegetarische Produkte in ihr Sortiment auf. <br /> __________ bietet jetzt auch Gemüsefrikadellen an der Frischetheke an. <br /><br /> Bitte schreibe einen passenden Namen in das Feld.,Herbert,Metzger*innen,,Wed Jun 15 2022 19:18:42 GMT+0200 (Mitteleuropäische Sommerzeit),1655313522132,male,9.56845,filler_sentences,1
3510,,18991,23,,female,Abitur,1655314096239,302,weiblich,12,Deutsch,2,NA,NA,NA,1,"Die Fast-Fashion Industrie sorgt dafür, dass Schneiderinnen kaum noch Aufträge bekommen. <br /> __________ sucht daher nach einem Nebenjob, um die Miete bezahlen zu können. <br /><br /> Bitte schreibe einen passenden Namen in das Feld.",Helga,Schneider*innen,,Wed Jun 15 2022 19:18:42 GMT+0200 (Mitteleuropäische Sommerzeit),1655313522132,female,9.56845,filler_sentences,1
3510,,10852,23,,female,Abitur,1655314096239,302,weiblich,13,Deutsch,2,NA,NA,NA,1,"Um sich auf die Zeit im All vorzubereiten, müssen Astronautinnen eine spezielle Schulung durchlaufen. <br /> __________ fällt es schwer, sich an die Trockennahrung zu gewöhnen. <br /><br /> Bitte schreibe einen passenden Namen in das Feld.",Lisa,Astronaut*innen,,Wed Jun 15 2022 19:18:42 GMT+0200 (Mitteleuropäische Sommerzeit),1655313522132,male,9.56845,filler_sentences,1
3510,,10693,23,,female,Abitur,1655314096239,302,weiblich,9,Deutsch,2,NA,NA,NA,1,"Nach dem Feierabend genießen die Kindergärtnerinnen die Ruhe von ihren kleinen Schützlingen.<br /> ___________ geht nach der Arbeit eine Runde joggen, um den Kopf freizubekommen. <br /><br /> Bitte schreibe einen passenden Namen in das Feld.",Lissy,Kindergärtner*innen,,Wed Jun 15 2022 19:18:42 GMT+0200 (Mitteleuropäische Sommerzeit),1655313522132,female,9.56845,filler_sentences,1
3510,,11201,23,,female,Abitur,1655314096239,302,weiblich,34,Deutsch,2,NA,NA,NA,1,"Die Relevanz von politischen Aktivistinnen nimmt immer mehr zu. <br /> ____ geht jede Woche auf die Straße, um für den Klimaschutz zu demonstrieren. <br /><br /> Bitte schreibe einen passenden Namen in das Feld.",Lara,Aktivist*innen,,Wed Jun 15 2022 19:18:42 GMT+0200 (Mitteleuropäische Sommerzeit),1655313522132,neutral,9.56845,filler_sentences,1
3510,,7767,23,,female,Abitur,1655314096239,302,weiblich,10,Deutsch,2,NA,NA,NA,1,"Um den Unterricht möglichst abwechslungsreich zu gestalten, nutzen Grundschullehrerinnen gerne verschiedene Medien.<br /> __________ verwendet am liebsten das Whiteboard, um Inhalte zu visualisieren. <br /><br /> Bitte schreibe einen passenden Namen in das Feld.",Johanna,Grundschullehrer*innen,,Wed Jun 15 2022 19:18:42 GMT+0200 (Mitteleuropäische Sommerzeit),1655313522132,female,9.56845,filler_sentences,1
3510,,10112,23,,gender-neutral,Abitur,1655314096239,302,weiblich,29,Deutsch,2,NA,NA,NA,1,"Ein Journalismus Studium zu beginnen, ist in Deutschland sehr schwierig, weshalb viele angehende Journalist*innen einen alternativen Bildungsweg einschlagen. <br /> ____ möchte sich trotzdem an der Universität in Berlin bewerben. <br /><br /> Bitte schreibe einen passenden Namen in das Feld.",Johannes,Journalist*innen,,Wed Jun 15 2022 19:18:42 GMT+0200 (Mitteleuropäische Sommerzeit),1655313522132,neutral,9.56845,filler_sentences,1
3510,,14088,23,,female,Abitur,1655314096239,302,weiblich,18,Deutsch,2,NA,NA,NA,1,"Die erfolgreiche Festnahme von Mörderinnen nimmt aufgrund technologischen Fortschritts immer weiter zu. <br />	__________ konnte aufgrund von Videoüberwachung und der Ortung des Smartphones schnell verhaftet werden, bevor es ein neues Opfer gab. <br /><br /> Bitte schreibe einen passenden Namen in das Feld.",Patrick,Mörder*innen,,Wed Jun 15 2022 19:18:42 GMT+0200 (Mitteleuropäische Sommerzeit),1655313522132,male,9.56845,filler_sentences,1
3510,,13430,23,,female,Abitur,1655314096239,302,weiblich,27,Deutsch,2,NA,NA,NA,1,Während der Corona-Pandemie hatten Hundehalterinnen mehr Zeit für ihre Vierbeiner. <br /> ____ ging jeden Nachmittag ausgiebig mit dem Hund spazieren. <br /><br /> Bitte schreibe einen passenden Namen in das Feld.,Kerstin,Hundehalter*innen,,Wed Jun 15 2022 19:18:42 GMT+0200 (Mitteleuropäische Sommerzeit),1655313522132,neutral,9.56845,filler_sentences,1
3510,,11998,23,,gender-neutral,Abitur,1655314096239,302,weiblich,4,Deutsch,2,NA,NA,NA,1,Ernährungsberater*innen empfehlen die Einnahme von Vitaminpräparaten. <br />___________ hält Vitamin D im Winter für besonders wichtig. <br /> <br /> Bitte schreibe einen passenden Namen in das Feld.,Claudia,Ernährungsberater*innen,,Wed Jun 15 2022 19:18:42 GMT+0200 (Mitteleuropäische Sommerzeit),1655313522132,female,9.56845,filler_sentences,1
3510,,6782,23,,gender-neutral,Abitur,1655314096239,302,weiblich,36,Deutsch,2,NA,NA,NA,1,"Während der Pandemie vermissten die Student*innen vor allem die Mensa. <br /> ____ geht jeden Tag essen, seit sie wieder geöffnet ist. <br /><br /> Bitte schreibe einen passenden Namen in das Feld.",Tom,Student*innen,,Wed Jun 15 2022 19:18:42 GMT+0200 (Mitteleuropäische Sommerzeit),1655313522132,neutral,9.56845,filler_sentences,1
3510,,13760,23,,female,Abitur,1655314096239,302,weiblich,15,Deutsch,2,NA,NA,NA,1,"Ein leistungsstarker Computer ist ausschlaggebend für die Arbeit von Programmiererinnen. <br /> __________ installiert regelmäßig die neuesten Softwareupdates, um nicht von der Konkurrenz abgehängt zu werden. <br /><br /> Bitte schreibe einen passenden Namen in das Feld.",Lin,Programmierer*innen,,Wed Jun 15 2022 19:18:42 GMT+0200 (Mitteleuropäische Sommerzeit),1655313522132,male,9.56845,filler_sentences,1
3510,,6535,23,,gender-neutral,Abitur,1655314096239,302,weiblich,17,Deutsch,2,NA,NA,NA,1,Urbane Bürgermeister*innen haben andere Prioritäten als jene auf dem Land. <br />	__________ legt das Hauptaugenmerk in der aktuellen Kampagne auf Innovation und Klimaschutz. <br /><br /> Bitte schreibe einen passenden Namen in das Feld.,Holger,Bürgermeister*innen,,Wed Jun 15 2022 19:18:42 GMT+0200 (Mitteleuropäische Sommerzeit),1655313522132,male,9.56845,filler_sentences,1
3510,,8584,23,,male,Abitur,1655314096239,302,weiblich,1,Deutsch,2,NA,NA,NA,1,Babysitter werden trotz fehlender Kitaplätze immer schlechter bezahlt. <br /> ____________ möchte sich deshalb einen neuen Job suchen.<br /> <br /> Bitte schreibe einen passenden Namen in das Feld.,Tanja,Babysitter*innen,,Wed Jun 15 2022 19:18:42 GMT+0200 (Mitteleuropäische Sommerzeit),1655313522132,female,9.56845,filler_sentences,1
3510,,6562,23,,male,Abitur,1655314096239,302,weiblich,35,Deutsch,2,NA,NA,NA,1,Eine eigene Praxis ist der Traum vieler Psychiater. <br /> ____ erhofft sich davon besonders flexible Arbeitszeiten. <br /><br /> Bitte schreibe einen passenden Namen in das Feld.,Klaus,Psychiater*innen,,Wed Jun 15 2022 19:18:42 GMT+0200 (Mitteleuropäische Sommerzeit),1655313522132,neutral,9.56845,filler_sentences,1
3510,,8213,23,,female,Abitur,1655314096239,302,weiblich,25,Deutsch,2,NA,NA,NA,1,"Bei einer Vernissage stellen Künstlerinnen ihre aktuellen Werke vor. <br /> ____ präsentiert stolz eine neue Technik, die Gips und Sand auf eine einzigartige Art und Weise  miteinander verbindet. <br /><br /> Bitte schreibe einen passenden Namen in das Feld.",Ole,Künstler*innen,,Wed Jun 15 2022 19:18:42 GMT+0200 (Mitteleuropäische Sommerzeit),1655313522132,neutral,9.56845,filler_sentences,1
3510,,10030,23,,male,Abitur,1655314096239,302,weiblich,20,Deutsch,2,NA,NA,NA,1,"Auf dem Weltklima-Gipfel versammeln sich unter anderem Präsidenten verschiedener Länder, um über eine politische Zusammenarbeit zu diskutieren. <br />	____ ist für die Einführung einer einheitlichen, verpflichtenden CO2-Besteuerung. <br /><br /> Bitte schreibe einen passenden Namen in das Feld.",Werner,Präsident*innen,,Wed Jun 15 2022 19:18:42 GMT+0200 (Mitteleuropäische Sommerzeit),1655313522132,male,9.56845,filler_sentences,1
3510,,13151,23,,female,Abitur,1655314096239,302,weiblich,19,Deutsch,2,NA,NA,NA,1,"Weil Pilotinnen beim Fliegen einer erhöhten Strahlung ausgesetzt sind, müssen sie früher in den Ruhestand. <br />		____ geht Ende des Jahres bereits in Rente, während Gleichaltrige noch 8 Jahre in ihrem Job arbeiten müssen. <br /><br /> Bitte schreibe einen passenden Namen in das Feld.",Kristin,Pilot*innen,,Wed Jun 15 2022 19:18:42 GMT+0200 (Mitteleuropäische Sommerzeit),1655313522132,male,9.56845,filler_sentences,1
3510,,8973,23,,male,Abitur,1655314096239,302,weiblich,6,Deutsch,2,NA,NA,NA,1,Im Gegensatz zu allen Fluggästen mögen Flugbegleiter keinen Tomatensaft.<br /> __________ bevorzugt Orangensaft während einer langen Flugreise. <br /><br /> Bitte schreibe einen passenden Namen in das Feld.,Jerry,Flugbegleiter*innen,,Wed Jun 15 2022 19:18:42 GMT+0200 (Mitteleuropäische Sommerzeit),1655313522132,female,9.56845,filler_sentences,1
3510,,10061,23,,female,Abitur,1655314096239,302,weiblich,2,Deutsch,2,NA,NA,NA,1,Die Balletttänzerinnen der Kompanie haben ihre Generalprobe auf der großen Bühne. <br /> ____________ verletzt sich dabei am Bein. <br /> <br />Bitte schreibe einen passenden Namen in das Feld.,Anna,Baletttänzer*innen,,Wed Jun 15 2022 19:18:42 GMT+0200 (Mitteleuropäische Sommerzeit),1655313522132,female,9.56845,filler_sentences,1
3510,,12592,23,,female,Abitur,1655314096239,302,weiblich,24,Deutsch,2,NA,NA,NA,1,Während einer Nachtschicht wird der Dienst von Taxifahrerinnen hauptsächlich von Betrunkenen in Anspruch genommen. <br />	____ arbeitet deswegen lieber tagsüber. <br /><br /> Bitte schreibe einen passenden Namen in das Feld.,Gisela,Taxifahrer*innen,,Wed Jun 15 2022 19:18:42 GMT+0200 (Mitteleuropäische Sommerzeit),1655313522132,male,9.56845,filler_sentences,1
3510,,6392,23,,female,Abitur,1655314096239,302,weiblich,22,Deutsch,2,NA,NA,NA,1,In Deutschland dürfen Soldatinnen kostenlos die öffentlichen Verkehrsmittel nutzen. <br />	____ besucht deshalb jede Woche die Familie. <br /> <br />Bitte schreibe einen passenden Namen in das Feld.,Laura,Soldat*innen,,Wed Jun 15 2022 19:18:42 GMT+0200 (Mitteleuropäische Sommerzeit),1655313522132,male,9.56845,filler_sentences,1
3510,,8170,23,,male,Abitur,1655314096239,302,weiblich,33,Deutsch,2,NA,NA,NA,1,"Mediziner tragen eine große Verantwortung. <br /> ____ kontrolliert jedes Rezept, das ausgestellt wird mehrfach, um Fehler zu vermeiden. <br /><br /> Bitte schreibe einen passenden Namen in das Feld.",Andreas,Mediziner*innen,,Wed Jun 15 2022 19:18:42 GMT+0200 (Mitteleuropäische Sommerzeit),1655313522132,neutral,9.56845,filler_sentences,1
3510,,14238,23,,female,Abitur,1655314096239,302,weiblich,23,Deutsch,2,NA,NA,NA,1,"Um während Operationen konzentriert zu bleiben, haben alle Chirurginnen ihre ganz persönlichen Strategien. <br />	____ hört gerne klassische Musik während eines Eingriffs. <br /><br /> Bitte schreibe einen passenden Namen in das Feld.",Evelyn,Chirurg*innen,,Wed Jun 15 2022 19:18:42 GMT+0200 (Mitteleuropäische Sommerzeit),1655313522132,male,9.56845,filler_sentences,1
3510,,11543,23,,gender-neutral,Abitur,1655314096239,302,weiblich,30,Deutsch,2,NA,NA,NA,1,Wegen des Mietendeckels konnten viele Mieter*innen während der Pandemie zu günstigen Mieten in ihren Wohnungen bleiben. <br /> ____ wurde jedoch kürzlich wegen Eigenbedarfs der Mietvertrag gekündigt. <br /><br /> Bitte schreibe einen passenden Namen in das Feld.,Indra,Mieter*innen,,Wed Jun 15 2022 19:18:42 GMT+0200 (Mitteleuropäische Sommerzeit),1655313522132,neutral,9.56845,filler_sentences,1
3510,,7294,23,,male,Abitur,1655314096239,302,weiblich,26,Deutsch,2,NA,NA,NA,1,Bei Olympia werden die besten Sportler mit einer Medaille gekürt. <br /> ____ erhält Gold in der Disziplin Schwimmen. <br /><br /> Bitte schreibe einen passenden Namen in das Feld.,Franz,Sportler*innen,,Wed Jun 15 2022 19:18:42 GMT+0200 (Mitteleuropäische Sommerzeit),1655313522132,neutral,9.56845,filler_sentences,1
3510,,12576,23,,gender-neutral,Abitur,1655314096239,302,weiblich,28,Deutsch,2,NA,NA,NA,1,"Um die besten Angebote nicht zu verpassen, müssen Immobilienmakler*innen täglich das Internet durchforsten. <br /> ____ hat allein heute 3 Stunden recherchiert. <br /><br /> Bitte schreibe einen passenden Namen in das Feld.",Christina,Immobilienmakler*innen,,Wed Jun 15 2022 19:18:42 GMT+0200 (Mitteleuropäische Sommerzeit),1655313522132,neutral,9.56845,filler_sentences,1
3510,,5077,23,,female,Abitur,1655314096239,302,weiblich,5,Deutsch,2,NA,NA,NA,1,"Wenn die Jahreszeiten wechseln, müssen Floristinnen die ganze Gärtnerei neu dekorieren. <br /> __________ liebt vor allem die Herbstdekoration. <br /><br /> Bitte schreibe einen passenden Namen in das Feld.",Paula,Florist*innen,,Wed Jun 15 2022 19:18:42 GMT+0200 (Mitteleuropäische Sommerzeit),1655313522132,female,9.56845,filler_sentences,1
3510,,9280,23,,male,Abitur,1655314096239,302,weiblich,11,Deutsch,2,NA,NA,NA,1,Autoren von Liebesromanen wird oft ein Hang zur Dramatik nachgesagt.<br /> ___________ lässt Geschichten deshalb stets mit einem Happy End enden. <br /><br /> Bitte schreibe einen passenden Namen in das Feld.,Rainer,Autor*innen von Liebesromanen,,Wed Jun 15 2022 19:18:42 GMT+0200 (Mitteleuropäische Sommerzeit),1655313522132,female,9.56845,filler_sentences,1
3510,,8919,23,,female,Abitur,1655314096239,302,weiblich,16,Deutsch,2,NA,NA,NA,1,Organisation und Führungsstärke gehören zu den wichtigsten Merkmalen von Managerinnen. <br /> __________ legt trotzdem viel Wert auf ein freundliches Arbeitsklima im Büro. <br /><br /> Bitte schreibe einen passenden Namen in das Feld.,Paula,Manager*innen,,Wed Jun 15 2022 19:18:42 GMT+0200 (Mitteleuropäische Sommerzeit),1655313522132,male,9.56845,filler_sentences,1
3510,,8554,23,,male,Abitur,1655314096239,302,weiblich,8,Deutsch,2,NA,NA,NA,1,"Viele Haushälter kümmern sich neben dem Haushalt auch um das seelische Wohl ihrer Vorgesetzten.<br /> ___________ hat immer ein offenes Ohr, wenn die Kinder Probleme in der Schule haben. <br /><br /> Bitte schreibe einen passenden Namen in das Feld.",Rita,Haushälter*innen,,Wed Jun 15 2022 19:18:42 GMT+0200 (Mitteleuropäische Sommerzeit),1655313522132,female,9.56845,filler_sentences,1
3510,,7865,23,,female,Abitur,1655314096239,302,weiblich,31,Deutsch,2,NA,NA,NA,1,In den Wintermonaten steigt die Anzahl der Patientinnen in den Arztpraxen stark an. <br /> ____ wartet schon seit Tagen auf einen Termin. <br /><br /> Bitte schreibe einen passenden Namen in das Feld.,Brigitte,Patient*innen,,Wed Jun 15 2022 19:18:42 GMT+0200 (Mitteleuropäische Sommerzeit),1655313522132,neutral,9.56845,filler_sentences,1
3510,NA,NA,23,,NA,Abitur,1655314096239,302,weiblich,NA,Deutsch,NA,NA,NA,NA,NA,NA,second,NA,,Wed Jun 15 2022 19:18:42 GMT+0200 (Mitteleuropäische Sommerzeit),1655313522132,NA,9.56845,name_check,1
3510,NA,NA,23,,NA,Abitur,1655314096239,302,weiblich,NA,Deutsch,NA,NA,NA,NA,NA,NA,first,NA,,Wed Jun 15 2022 19:18:42 GMT+0200 (Mitteleuropäische Sommerzeit),1655313522132,NA,9.56845,name_check,2
3510,NA,NA,23,,NA,Abitur,1655314096239,302,weiblich,NA,Deutsch,NA,NA,NA,NA,NA,NA,second,NA,,Wed Jun 15 2022 19:18:42 GMT+0200 (Mitteleuropäische Sommerzeit),1655313522132,NA,9.56845,name_check,3
3510,NA,NA,23,,NA,Abitur,1655314096239,302,weiblich,NA,Deutsch,NA,NA,NA,NA,NA,NA,first,NA,,Wed Jun 15 2022 19:18:42 GMT+0200 (Mitteleuropäische Sommerzeit),1655313522132,NA,9.56845,name_check,4
3510,NA,NA,23,,NA,Abitur,1655314096239,302,weiblich,NA,Deutsch,NA,NA,NA,NA,NA,NA,second,NA,,Wed Jun 15 2022 19:18:42 GMT+0200 (Mitteleuropäische Sommerzeit),1655313522132,NA,9.56845,name_check,5
3510,NA,NA,23,,NA,Abitur,1655314096239,302,weiblich,NA,Deutsch,NA,NA,NA,NA,NA,NA,first,NA,,Wed Jun 15 2022 19:18:42 GMT+0200 (Mitteleuropäische Sommerzeit),1655313522132,NA,9.56845,name_check,6
3510,NA,NA,23,,NA,Abitur,1655314096239,302,weiblich,NA,Deutsch,NA,NA,NA,NA,NA,NA,first,NA,,Wed Jun 15 2022 19:18:42 GMT+0200 (Mitteleuropäische Sommerzeit),1655313522132,NA,9.56845,name_check,7
3510,NA,NA,23,,NA,Abitur,1655314096239,302,weiblich,NA,Deutsch,NA,NA,NA,NA,NA,NA,first,NA,,Wed Jun 15 2022 19:18:42 GMT+0200 (Mitteleuropäische Sommerzeit),1655313522132,NA,9.56845,name_check,8
3510,NA,NA,23,,NA,Abitur,1655314096239,302,weiblich,NA,Deutsch,NA,NA,NA,NA,NA,NA,first,NA,,Wed Jun 15 2022 19:18:42 GMT+0200 (Mitteleuropäische Sommerzeit),1655313522132,NA,9.56845,name_check,9
3510,NA,NA,23,,NA,Abitur,1655314096239,302,weiblich,NA,Deutsch,NA,NA,NA,NA,NA,NA,first,NA,,Wed Jun 15 2022 19:18:42 GMT+0200 (Mitteleuropäische Sommerzeit),1655313522132,NA,9.56845,name_check,10
3510,NA,NA,23,,NA,Abitur,1655314096239,302,weiblich,NA,Deutsch,NA,NA,NA,NA,NA,NA,second,NA,,Wed Jun 15 2022 19:18:42 GMT+0200 (Mitteleuropäische Sommerzeit),1655313522132,NA,9.56845,name_check,11
3510,NA,NA,23,,NA,Abitur,1655314096239,302,weiblich,NA,Deutsch,NA,NA,NA,NA,NA,NA,second,NA,,Wed Jun 15 2022 19:18:42 GMT+0200 (Mitteleuropäische Sommerzeit),1655313522132,NA,9.56845,name_check,12
3510,NA,NA,23,,NA,Abitur,1655314096239,302,weiblich,NA,Deutsch,NA,NA,NA,NA,NA,NA,first,NA,,Wed Jun 15 2022 19:18:42 GMT+0200 (Mitteleuropäische Sommerzeit),1655313522132,NA,9.56845,name_check,13
3510,NA,NA,23,,NA,Abitur,1655314096239,302,weiblich,NA,Deutsch,NA,NA,NA,NA,NA,NA,first,NA,,Wed Jun 15 2022 19:18:42 GMT+0200 (Mitteleuropäische Sommerzeit),1655313522132,NA,9.56845,name_check,14
3510,NA,NA,23,,NA,Abitur,1655314096239,302,weiblich,NA,Deutsch,NA,NA,NA,NA,NA,NA,second,NA,,Wed Jun 15 2022 19:18:42 GMT+0200 (Mitteleuropäische Sommerzeit),1655313522132,NA,9.56845,name_check,15
3510,NA,NA,23,,NA,Abitur,1655314096239,302,weiblich,NA,Deutsch,NA,NA,NA,NA,NA,NA,first,NA,,Wed Jun 15 2022 19:18:42 GMT+0200 (Mitteleuropäische Sommerzeit),1655313522132,NA,9.56845,name_check,16
3510,NA,NA,23,,NA,Abitur,1655314096239,302,weiblich,NA,Deutsch,NA,NA,NA,NA,NA,NA,second,NA,,Wed Jun 15 2022 19:18:42 GMT+0200 (Mitteleuropäische Sommerzeit),1655313522132,NA,9.56845,name_check,17
3510,NA,NA,23,,NA,Abitur,1655314096239,302,weiblich,NA,Deutsch,NA,NA,NA,NA,NA,NA,first,NA,,Wed Jun 15 2022 19:18:42 GMT+0200 (Mitteleuropäische Sommerzeit),1655313522132,NA,9.56845,name_check,18
3510,NA,NA,23,,NA,Abitur,1655314096239,302,weiblich,NA,Deutsch,NA,NA,NA,NA,NA,NA,second,NA,,Wed Jun 15 2022 19:18:42 GMT+0200 (Mitteleuropäische Sommerzeit),1655313522132,NA,9.56845,name_check,19
3510,NA,NA,23,,NA,Abitur,1655314096239,302,weiblich,NA,Deutsch,NA,NA,NA,NA,NA,NA,second,NA,,Wed Jun 15 2022 19:18:42 GMT+0200 (Mitteleuropäische Sommerzeit),1655313522132,NA,9.56845,name_check,20
3510,NA,NA,23,,NA,Abitur,1655314096239,302,weiblich,NA,Deutsch,NA,NA,NA,NA,NA,NA,second,NA,,Wed Jun 15 2022 19:18:42 GMT+0200 (Mitteleuropäische Sommerzeit),1655313522132,NA,9.56845,name_check,21
3510,NA,NA,23,,NA,Abitur,1655314096239,302,weiblich,NA,Deutsch,NA,NA,NA,NA,NA,NA,first,NA,,Wed Jun 15 2022 19:18:42 GMT+0200 (Mitteleuropäische Sommerzeit),1655313522132,NA,9.56845,name_check,22
3510,NA,NA,23,,NA,Abitur,1655314096239,302,weiblich,NA,Deutsch,NA,NA,NA,NA,NA,NA,second,NA,,Wed Jun 15 2022 19:18:42 GMT+0200 (Mitteleuropäische Sommerzeit),1655313522132,NA,9.56845,name_check,23
3510,NA,NA,23,,NA,Abitur,1655314096239,302,weiblich,NA,Deutsch,NA,NA,NA,NA,NA,NA,first,NA,,Wed Jun 15 2022 19:18:42 GMT+0200 (Mitteleuropäische Sommerzeit),1655313522132,NA,9.56845,name_check,24
3510,NA,NA,23,,NA,Abitur,1655314096239,302,weiblich,NA,Deutsch,NA,NA,NA,NA,NA,NA,first,NA,,Wed Jun 15 2022 19:18:42 GMT+0200 (Mitteleuropäische Sommerzeit),1655313522132,NA,9.56845,name_check,25
3510,NA,NA,23,,NA,Abitur,1655314096239,302,weiblich,NA,Deutsch,NA,NA,NA,NA,NA,NA,first,NA,,Wed Jun 15 2022 19:18:42 GMT+0200 (Mitteleuropäische Sommerzeit),1655313522132,NA,9.56845,name_check,26
3510,NA,NA,23,,NA,Abitur,1655314096239,302,weiblich,NA,Deutsch,NA,NA,NA,NA,NA,NA,second,NA,,Wed Jun 15 2022 19:18:42 GMT+0200 (Mitteleuropäische Sommerzeit),1655313522132,NA,9.56845,name_check,27
3510,NA,NA,23,,NA,Abitur,1655314096239,302,weiblich,NA,Deutsch,NA,NA,NA,NA,NA,NA,first,NA,,Wed Jun 15 2022 19:18:42 GMT+0200 (Mitteleuropäische Sommerzeit),1655313522132,NA,9.56845,name_check,28
3510,NA,NA,23,,NA,Abitur,1655314096239,302,weiblich,NA,Deutsch,NA,NA,NA,NA,NA,NA,first,NA,,Wed Jun 15 2022 19:18:42 GMT+0200 (Mitteleuropäische Sommerzeit),1655313522132,NA,9.56845,name_check,29
3510,NA,NA,23,,NA,Abitur,1655314096239,302,weiblich,NA,Deutsch,NA,NA,NA,NA,NA,NA,second,NA,,Wed Jun 15 2022 19:18:42 GMT+0200 (Mitteleuropäische Sommerzeit),1655313522132,NA,9.56845,name_check,30
3510,NA,NA,23,,NA,Abitur,1655314096239,302,weiblich,NA,Deutsch,NA,NA,NA,NA,NA,NA,first,NA,,Wed Jun 15 2022 19:18:42 GMT+0200 (Mitteleuropäische Sommerzeit),1655313522132,NA,9.56845,name_check,31
3510,NA,NA,23,,NA,Abitur,1655314096239,302,weiblich,NA,Deutsch,NA,NA,NA,NA,NA,NA,first,NA,,Wed Jun 15 2022 19:18:42 GMT+0200 (Mitteleuropäische Sommerzeit),1655313522132,NA,9.56845,name_check,32
3510,NA,NA,23,,NA,Abitur,1655314096239,302,weiblich,NA,Deutsch,NA,NA,NA,NA,NA,NA,second,NA,,Wed Jun 15 2022 19:18:42 GMT+0200 (Mitteleuropäische Sommerzeit),1655313522132,NA,9.56845,name_check,33
3510,NA,NA,23,,NA,Abitur,1655314096239,302,weiblich,NA,Deutsch,NA,NA,NA,NA,NA,NA,first,NA,,Wed Jun 15 2022 19:18:42 GMT+0200 (Mitteleuropäische Sommerzeit),1655313522132,NA,9.56845,name_check,34
3510,NA,NA,23,,NA,Abitur,1655314096239,302,weiblich,NA,Deutsch,NA,NA,NA,NA,NA,NA,first,NA,,Wed Jun 15 2022 19:18:42 GMT+0200 (Mitteleuropäische Sommerzeit),1655313522132,NA,9.56845,name_check,35
3510,NA,NA,23,,NA,Abitur,1655314096239,302,weiblich,NA,Deutsch,NA,NA,NA,NA,NA,NA,first,NA,,Wed Jun 15 2022 19:18:42 GMT+0200 (Mitteleuropäische Sommerzeit),1655313522132,NA,9.56845,name_check,36
3510,,2559,23,,NA,Abitur,1655314096239,302,weiblich,30,Deutsch,NA,Männlich,Neutral,Weiblich,3,<strong>Mieter*innen</strong> <br /> Mit welchem Geschlecht würdest du dieses Wort am ehesten assoziieren?,Neutral,Mieter*innen,,Wed Jun 15 2022 19:18:42 GMT+0200 (Mitteleuropäische Sommerzeit),1655313522132,neutral,9.56845,forced_choice_3A,1
3510,,1101,23,,NA,Abitur,1655314096239,302,weiblich,23,Deutsch,NA,Männlich,Neutral,Weiblich,3,<strong>Chirgur*innen</strong> <br /> Mit welchem Geschlecht würdest du dieses Wort am ehesten assoziieren?,Neutral,Chirgur*innen,,Wed Jun 15 2022 19:18:42 GMT+0200 (Mitteleuropäische Sommerzeit),1655313522132,male,9.56845,forced_choice_3A,2
3510,,955,23,,NA,Abitur,1655314096239,302,weiblich,3,Deutsch,NA,Männlich,Neutral,Weiblich,3,<strong>Kassierer*innen</strong> <br /> Mit welchem Geschlecht würdest du dieses Wort am ehesten assoziieren?,Neutral,Kassierer*innen,,Wed Jun 15 2022 19:18:42 GMT+0200 (Mitteleuropäische Sommerzeit),1655313522132,female,9.56845,forced_choice_3A,3
3510,,731,23,,NA,Abitur,1655314096239,302,weiblich,2,Deutsch,NA,Männlich,Neutral,Weiblich,3,<strong>Balletttänzer*innen</strong> <br /> Mit welchem Geschlecht würdest du dieses Wort am ehesten assoziieren?,Neutral,Balletttänzer*innen,,Wed Jun 15 2022 19:18:42 GMT+0200 (Mitteleuropäische Sommerzeit),1655313522132,female,9.56845,forced_choice_3A,4
3510,,4492,23,,NA,Abitur,1655314096239,302,weiblich,24,Deutsch,NA,Männlich,Neutral,Weiblich,3,<strong>Taxifahrer*innen</strong> <br /> Mit welchem Geschlecht würdest du dieses Wort am ehesten assoziieren?,Männlich,Taxifahrer*innen,,Wed Jun 15 2022 19:18:42 GMT+0200 (Mitteleuropäische Sommerzeit),1655313522132,male,9.56845,forced_choice_3A,5
3510,,3335,23,,NA,Abitur,1655314096239,302,weiblich,21,Deutsch,NA,Männlich,Neutral,Weiblich,3,<strong>Privatdetektiv*innen</strong> <br /> Mit welchem Geschlecht würdest du dieses Wort am ehesten assoziieren?,Neutral,Privatdetektiv*innen,,Wed Jun 15 2022 19:18:42 GMT+0200 (Mitteleuropäische Sommerzeit),1655313522132,male,9.56845,forced_choice_3A,6
3510,,1405,23,,NA,Abitur,1655314096239,302,weiblich,18,Deutsch,NA,Männlich,Neutral,Weiblich,3,<strong>Mörder*innen</strong> <br /> Mit welchem Geschlecht würdest du dieses Wort am ehesten assoziieren?,Neutral,Mörder*innen,,Wed Jun 15 2022 19:18:42 GMT+0200 (Mitteleuropäische Sommerzeit),1655313522132,male,9.56845,forced_choice_3A,7
3510,,1716,23,,NA,Abitur,1655314096239,302,weiblich,4,Deutsch,NA,Männlich,Neutral,Weiblich,3,<strong>Ernährungsberater*innen</strong> <br /> Mit welchem Geschlecht würdest du dieses Wort am ehesten assoziieren?,Neutral,Ernährungsberater*innen,,Wed Jun 15 2022 19:18:42 GMT+0200 (Mitteleuropäische Sommerzeit),1655313522132,female,9.56845,forced_choice_3A,8
3510,,3465,23,,NA,Abitur,1655314096239,302,weiblich,13,Deutsch,NA,Männlich,Neutral,Weiblich,3,<strong>Astronaut*innen</strong> <br /> Mit welchem Geschlecht würdest du dieses Wort am ehesten assoziieren?,Neutral,Astronaut*innen,,Wed Jun 15 2022 19:18:42 GMT+0200 (Mitteleuropäische Sommerzeit),1655313522132,male,9.56845,forced_choice_3A,9
3510,,1443,23,,NA,Abitur,1655314096239,302,weiblich,27,Deutsch,NA,Männlich,Neutral,Weiblich,3,<strong>Hundehalter*innen</strong> <br /> Mit welchem Geschlecht würdest du dieses Wort am ehesten assoziieren?,Neutral,Hundehalter*innen,,Wed Jun 15 2022 19:18:42 GMT+0200 (Mitteleuropäische Sommerzeit),1655313522132,neutral,9.56845,forced_choice_3A,10
3510,,1612,23,,NA,Abitur,1655314096239,302,weiblich,35,Deutsch,NA,Männlich,Neutral,Weiblich,3,<strong>Psychiater*innen</strong> <br /> Mit welchem Geschlecht würdest du dieses Wort am ehesten assoziieren?,Neutral,Psychiater*innen,,Wed Jun 15 2022 19:18:42 GMT+0200 (Mitteleuropäische Sommerzeit),1655313522132,neutral,9.56845,forced_choice_3A,11
3510,,3401,23,,NA,Abitur,1655314096239,302,weiblich,29,Deutsch,NA,Männlich,Neutral,Weiblich,3,<strong>Journalist*innen</strong> <br /> Mit welchem Geschlecht würdest du dieses Wort am ehesten assoziieren?,Neutral,Journalist*innen,,Wed Jun 15 2022 19:18:42 GMT+0200 (Mitteleuropäische Sommerzeit),1655313522132,neutral,9.56845,forced_choice_3A,12
3510,,1362,23,,NA,Abitur,1655314096239,302,weiblich,22,Deutsch,NA,Männlich,Neutral,Weiblich,3,<strong>Soldat*innen</strong> <br /> Mit welchem Geschlecht würdest du dieses Wort am ehesten assoziieren?,Neutral,Soldat*innen,,Wed Jun 15 2022 19:18:42 GMT+0200 (Mitteleuropäische Sommerzeit),1655313522132,male,9.56845,forced_choice_3A,13
3510,,1528,23,,NA,Abitur,1655314096239,302,weiblich,20,Deutsch,NA,Männlich,Neutral,Weiblich,3,<strong>Präsident*innen</strong> <br /> Mit welchem Geschlecht würdest du dieses Wort am ehesten assoziieren?,Männlich,Präsident*innen,,Wed Jun 15 2022 19:18:42 GMT+0200 (Mitteleuropäische Sommerzeit),1655313522132,male,9.56845,forced_choice_3A,14
3510,,1229,23,,NA,Abitur,1655314096239,302,weiblich,9,Deutsch,NA,Männlich,Neutral,Weiblich,3,<strong>Kindergärtner*innen</strong> <br /> Mit welchem Geschlecht würdest du dieses Wort am ehesten assoziieren?,Neutral,Kindergärtner*innen,,Wed Jun 15 2022 19:18:42 GMT+0200 (Mitteleuropäische Sommerzeit),1655313522132,female,9.56845,forced_choice_3A,15
3510,,1586,23,,NA,Abitur,1655314096239,302,weiblich,16,Deutsch,NA,Männlich,Neutral,Weiblich,3,<strong>Manager*innen</strong> <br /> Mit welchem Geschlecht würdest du dieses Wort am ehesten assoziieren?,Männlich,Manager*innen,,Wed Jun 15 2022 19:18:42 GMT+0200 (Mitteleuropäische Sommerzeit),1655313522132,male,9.56845,forced_choice_3A,16
3510,,1135,23,,NA,Abitur,1655314096239,302,weiblich,7,Deutsch,NA,Männlich,Neutral,Weiblich,3,<strong>Friseur*innen</strong> <br /> Mit welchem Geschlecht würdest du dieses Wort am ehesten assoziieren?,Neutral,Friseur*innen,,Wed Jun 15 2022 19:18:42 GMT+0200 (Mitteleuropäische Sommerzeit),1655313522132,female,9.56845,forced_choice_3A,17
3510,,1281,23,,NA,Abitur,1655314096239,302,weiblich,1,Deutsch,NA,Männlich,Neutral,Weiblich,3,<strong> Babysiter*innen </strong> <br /> <br /> Mit welchem Geschlecht würdest du dieses Wort am ehesten assoziieren?,Neutral,Babysitter*innen,,Wed Jun 15 2022 19:18:42 GMT+0200 (Mitteleuropäische Sommerzeit),1655313522132,female,9.56845,forced_choice_3A,18
3510,,1716,23,,NA,Abitur,1655314096239,302,weiblich,32,Deutsch,NA,Männlich,Neutral,Weiblich,3,<strong>Fotograf*innen</strong> <br /> Mit welchem Geschlecht würdest du dieses Wort am ehesten assoziieren?,Neutral,Fotograf*innen,,Wed Jun 15 2022 19:18:42 GMT+0200 (Mitteleuropäische Sommerzeit),1655313522132,neutral,9.56845,forced_choice_3A,19
3510,,1425,23,,NA,Abitur,1655314096239,302,weiblich,10,Deutsch,NA,Männlich,Neutral,Weiblich,3,<strong>Grundschullehrer*innen</strong> <br /> Mit welchem Geschlecht würdest du dieses Wort am ehesten assoziieren?,Neutral,Grundschullehrer*innen,,Wed Jun 15 2022 19:18:42 GMT+0200 (Mitteleuropäische Sommerzeit),1655313522132,female,9.56845,forced_choice_3A,20
3510,,2287,23,,NA,Abitur,1655314096239,302,weiblich,11,Deutsch,NA,Männlich,Neutral,Weiblich,3,<strong>Autor*innen von Liebesromanen</strong> <br /> Mit welchem Geschlecht würdest du dieses Wort am ehesten assoziieren?,Neutral,Autor*innen von Liebesromanen,,Wed Jun 15 2022 19:18:42 GMT+0200 (Mitteleuropäische Sommerzeit),1655313522132,female,9.56845,forced_choice_3A,21
3510,,1370,23,,NA,Abitur,1655314096239,302,weiblich,31,Deutsch,NA,Männlich,Neutral,Weiblich,3,<strong>Patient*innen</strong> <br /> Mit welchem Geschlecht würdest du dieses Wort am ehesten assoziieren?,Neutral,Patient*innen,,Wed Jun 15 2022 19:18:42 GMT+0200 (Mitteleuropäische Sommerzeit),1655313522132,neutral,9.56845,forced_choice_3A,22
3510,,2215,23,,NA,Abitur,1655314096239,302,weiblich,12,Deutsch,NA,Männlich,Neutral,Weiblich,3,<strong>Schneider*innen</strong> <br /> Mit welchem Geschlecht würdest du dieses Wort am ehesten assoziieren?,Neutral,Schneider*innen,,Wed Jun 15 2022 19:18:42 GMT+0200 (Mitteleuropäische Sommerzeit),1655313522132,female,9.56845,forced_choice_3A,23
3510,,2006,23,,NA,Abitur,1655314096239,302,weiblich,34,Deutsch,NA,Männlich,Neutral,Weiblich,3,<strong>politische Aktivist*innen</strong> <br /> Mit welchem Geschlecht würdest du dieses Wort am ehesten assoziieren?,Neutral,politische Aktivist*innen,,Wed Jun 15 2022 19:18:42 GMT+0200 (Mitteleuropäische Sommerzeit),1655313522132,neutral,9.56845,forced_choice_3A,24
3510,,1615,23,,NA,Abitur,1655314096239,302,weiblich,36,Deutsch,NA,Männlich,Neutral,Weiblich,3,<strong>Student*innen</strong> <br /> Mit welchem Geschlecht würdest du dieses Wort am ehesten assoziieren?,Neutral,Student*innen,,Wed Jun 15 2022 19:18:42 GMT+0200 (Mitteleuropäische Sommerzeit),1655313522132,neutral,9.56845,forced_choice_3A,25
3510,,1765,23,,NA,Abitur,1655314096239,302,weiblich,33,Deutsch,NA,Männlich,Neutral,Weiblich,3,<strong>Mediziner*innen</strong> <br /> Mit welchem Geschlecht würdest du dieses Wort am ehesten assoziieren?,Männlich,Mediziner*innen,,Wed Jun 15 2022 19:18:42 GMT+0200 (Mitteleuropäische Sommerzeit),1655313522132,neutral,9.56845,forced_choice_3A,26
3510,,1378,23,,NA,Abitur,1655314096239,302,weiblich,6,Deutsch,NA,Männlich,Neutral,Weiblich,3,<strong>Flugbegleiter*innen</strong> <br /> Mit welchem Geschlecht würdest du dieses Wort am ehesten assoziieren?,Neutral,Flugbegleiter*innen,,Wed Jun 15 2022 19:18:42 GMT+0200 (Mitteleuropäische Sommerzeit),1655313522132,female,9.56845,forced_choice_3A,27
3510,,1351,23,,NA,Abitur,1655314096239,302,weiblich,17,Deutsch,NA,Männlich,Neutral,Weiblich,3,<strong>Bürgermeister*innen</strong> <br /> Mit welchem Geschlecht würdest du dieses Wort am ehesten assoziieren?,Männlich,Bürgermeister*innen,,Wed Jun 15 2022 19:18:42 GMT+0200 (Mitteleuropäische Sommerzeit),1655313522132,male,9.56845,forced_choice_3A,28
3510,,1001,23,,NA,Abitur,1655314096239,302,weiblich,5,Deutsch,NA,Männlich,Neutral,Weiblich,3,<strong>Florist*innen</strong> <br /> Mit welchem Geschlecht würdest du dieses Wort am ehesten assoziieren?,Neutral,Florist*innen,,Wed Jun 15 2022 19:18:42 GMT+0200 (Mitteleuropäische Sommerzeit),1655313522132,female,9.56845,forced_choice_3A,29
3510,,1245,23,,NA,Abitur,1655314096239,302,weiblich,8,Deutsch,NA,Männlich,Neutral,Weiblich,3,<strong>Haushälter*innen</strong> <br /> Mit welchem Geschlecht würdest du dieses Wort am ehesten assoziieren?,Neutral,Haushälter*innen,,Wed Jun 15 2022 19:18:42 GMT+0200 (Mitteleuropäische Sommerzeit),1655313522132,female,9.56845,forced_choice_3A,30
3510,,1960,23,,NA,Abitur,1655314096239,302,weiblich,25,Deutsch,NA,Männlich,Neutral,Weiblich,3,<strong>Künstler*innen</strong> <br /> Mit welchem Geschlecht würdest du dieses Wort am ehesten assoziieren?,Neutral,Künstler*innen,,Wed Jun 15 2022 19:18:42 GMT+0200 (Mitteleuropäische Sommerzeit),1655313522132,neutral,9.56845,forced_choice_3A,31
3510,,1372,23,,NA,Abitur,1655314096239,302,weiblich,28,Deutsch,NA,Männlich,Neutral,Weiblich,3,<strong>Immobilienmakler*innen</strong> <br /> Mit welchem Geschlecht würdest du dieses Wort am ehesten assoziieren?,Männlich,Immobilienmakler*innen,,Wed Jun 15 2022 19:18:42 GMT+0200 (Mitteleuropäische Sommerzeit),1655313522132,neutral,9.56845,forced_choice_3A,32
3510,,3386,23,,NA,Abitur,1655314096239,302,weiblich,19,Deutsch,NA,Männlich,Neutral,Weiblich,3,<strong>Pilot*innen</strong> <br /> Mit welchem Geschlecht würdest du dieses Wort am ehesten assoziieren?,Männlich,Pilot*innen,,Wed Jun 15 2022 19:18:42 GMT+0200 (Mitteleuropäische Sommerzeit),1655313522132,male,9.56845,forced_choice_3A,33
3510,,2101,23,,NA,Abitur,1655314096239,302,weiblich,26,Deutsch,NA,Männlich,Neutral,Weiblich,3,<strong>Sportler*innen</strong> <br /> Mit welchem Geschlecht würdest du dieses Wort am ehesten assoziieren?,Neutral,Sportler*innen,,Wed Jun 15 2022 19:18:42 GMT+0200 (Mitteleuropäische Sommerzeit),1655313522132,neutral,9.56845,forced_choice_3A,34
3510,,1568,23,,NA,Abitur,1655314096239,302,weiblich,14,Deutsch,NA,Männlich,Neutral,Weiblich,3,<strong>Metzger*innen</strong> <br /> Mit welchem Geschlecht würdest du dieses Wort am ehesten assoziieren?,Männlich,Metzger*innen,,Wed Jun 15 2022 19:18:42 GMT+0200 (Mitteleuropäische Sommerzeit),1655313522132,male,9.56845,forced_choice_3A,35
3510,,2021,23,,NA,Abitur,1655314096239,302,weiblich,15,Deutsch,NA,Männlich,Neutral,Weiblich,3,<strong>Programmierer*innen</strong> <br /> Mit welchem Geschlecht würdest du dieses Wort am ehesten assoziieren?,Neutral,Programmierer*innen,,Wed Jun 15 2022 19:18:42 GMT+0200 (Mitteleuropäische Sommerzeit),1655313522132,male,9.56845,forced_choice_3A,36
3509,,53698,21,,male,Abitur,1654182095555,302,weiblich,30,Deutsch,2,NA,NA,NA,1,Wegen des Mietendeckels konnten viele Mieter während der Pandemie zu günstigen Mieten in ihren Wohnungen bleiben. <br /> ____ wurde jedoch kürzlich wegen Eigenbedarfs der Mietvertrag gekündigt. <br /><br /> Bitte schreibe einen passenden Namen in das Feld.,Olaf,Mieter*innen,,Thu Jun 02 2022 16:36:57 GMT+0200 (CEST),1654180617671,neutral,24.6314,filler_sentences,1
3509,,18848,21,,female,Abitur,1654182095555,302,weiblich,10,Deutsch,2,NA,NA,NA,1,"Um den Unterricht möglichst abwechslungsreich zu gestalten, nutzen Grundschullehrerinnen gerne verschiedene Medien.<br /> __________ verwendet am liebsten das Whiteboard, um Inhalte zu visualisieren. <br /><br /> Bitte schreibe einen passenden Namen in das Feld.",Stefanie,Grundschullehrer*innen,,Thu Jun 02 2022 16:36:57 GMT+0200 (CEST),1654180617671,female,24.6314,filler_sentences,1
3509,,64703,21,,female,Abitur,1654182095555,302,weiblich,20,Deutsch,2,NA,NA,NA,1,"Auf dem Weltklima-Gipfel versammeln sich unter anderem Präsidentinnen verschiedener Länder, um über eine politische Zusammenarbeit zu diskutieren. <br />	____ ist für die Einführung einer einheitlichen, verpflichtenden CO2-Besteuerung. <br /><br /> Bitte schreibe einen passenden Namen in das Feld.",Jens,Präsident*innen,,Thu Jun 02 2022 16:36:57 GMT+0200 (CEST),1654180617671,male,24.6314,filler_sentences,1
3509,,29398,21,,gender-neutral,Abitur,1654182095555,302,weiblich,6,Deutsch,2,NA,NA,NA,1,Im Gegensatz zu allen Fluggästen mögen Flugbegleiter*innen keinen Tomatensaft.<br /> ___________ bevorzugt Orangensaft während einer langen Flugreise. <br /><br /> Bitte schreibe einen passenden Namen in das Feld.,Inka,Flugbegleiter*innen,,Thu Jun 02 2022 16:36:57 GMT+0200 (CEST),1654180617671,female,24.6314,filler_sentences,1
3509,,21447,21,,female,Abitur,1654182095555,302,weiblich,31,Deutsch,2,NA,NA,NA,1,In den Wintermonaten steigt die Anzahl der Patientinnen in den Arztpraxen stark an. <br /> ____ wartet schon seit Tagen auf einen Termin. <br /><br /> Bitte schreibe einen passenden Namen in das Feld.,Lisa,Patient*innen,,Thu Jun 02 2022 16:36:57 GMT+0200 (CEST),1654180617671,neutral,24.6314,filler_sentences,1
3509,,29544,21,,gender-neutral,Abitur,1654182095555,302,weiblich,34,Deutsch,2,NA,NA,NA,1,"Die Relevanz von politischen Aktivist*innen nimmt immer mehr zu. <br /> ____ geht jede Woche auf die Straße, um für den Klimaschutz zu demonstrieren. <br /><br /> Bitte schreibe einen passenden Namen in das Feld.",Max,Aktivist*innen,,Thu Jun 02 2022 16:36:57 GMT+0200 (CEST),1654180617671,neutral,24.6314,filler_sentences,1
3509,,26373,21,,female,Abitur,1654182095555,302,weiblich,16,Deutsch,2,NA,NA,NA,1,Organisation und Führungsstärke gehören zu den wichtigsten Merkmalen von Managerinnen. <br /> __________ legt trotzdem viel Wert auf ein freundliches Arbeitsklima im Büro. <br /><br /> Bitte schreibe einen passenden Namen in das Feld.,Beate,Manager*innen,,Thu Jun 02 2022 16:36:57 GMT+0200 (CEST),1654180617671,male,24.6314,filler_sentences,1
3509,,42271,21,,male,Abitur,1654182095555,302,weiblich,7,Deutsch,2,NA,NA,NA,1,Bei den ganzen neuen Trends kommen Friseure kaum noch hinterher.<br /> __________ schneidet am liebsten klassische Frisuren. <br /><br /> Bitte schreibe einen passenden Namen in das Feld.,Tom,Friseur*innen,,Thu Jun 02 2022 16:36:57 GMT+0200 (CEST),1654180617671,female,24.6314,filler_sentences,1
3509,,21981,21,,male,Abitur,1654182095555,302,weiblich,26,Deutsch,2,NA,NA,NA,1,Bei Olympia werden die besten Sportler mit einer Medaille gekürt. <br /> ____ erhält Gold in der Disziplin Schwimmen. <br /><br /> Bitte schreibe einen passenden Namen in das Feld.,Felix,Sportler*innen,,Thu Jun 02 2022 16:36:57 GMT+0200 (CEST),1654180617671,neutral,24.6314,filler_sentences,1
3509,,17632,21,,male,Abitur,1654182095555,302,weiblich,33,Deutsch,2,NA,NA,NA,1,"Mediziner tragen eine große Verantwortung. <br /> ____ kontrolliert jedes Rezept, das ausgestellt wird mehrfach, um Fehler zu vermeiden. <br /><br /> Bitte schreibe einen passenden Namen in das Feld.",Stefan,Mediziner*innen,,Thu Jun 02 2022 16:36:57 GMT+0200 (CEST),1654180617671,neutral,24.6314,filler_sentences,1
3509,,22200,21,,female,Abitur,1654182095555,302,weiblich,36,Deutsch,2,NA,NA,NA,1,"Während der Pandemie vermissten die Studentinnen vor allem die Mensa. <br /> ____ geht jeden Tag essen, seit sie wieder geöffnet ist. <br /><br /> Bitte schreibe einen passenden Namen in das Feld.",Jimmy,Student*innen,,Thu Jun 02 2022 16:36:57 GMT+0200 (CEST),1654180617671,neutral,24.6314,filler_sentences,1
3509,,40428,21,,male,Abitur,1654182095555,302,weiblich,15,Deutsch,2,NA,NA,NA,1,"Ein leistungsstarker Computer ist ausschlaggebend für die Arbeit von Programmierern. <br /> __________ installiert regelmäßig die neuesten Softwareupdates, um nicht von der Konkurrenz abgehängt zu werden. <br /><br /> Bitte schreibe einen passenden Namen in das Feld.",Chris,Programmierer*innen,,Thu Jun 02 2022 16:36:57 GMT+0200 (CEST),1654180617671,male,24.6314,filler_sentences,1
3509,,11803,21,,gender-neutral,Abitur,1654182095555,302,weiblich,27,Deutsch,2,NA,NA,NA,1,Während der Corona-Pandemie hatten Hundehalter*innen mehr Zeit für ihre Vierbeiner. <br /> ____ ging jeden Nachmittag ausgiebig mit dem Hund spazieren. <br /><br /> Bitte schreibe einen passenden Namen in das Feld.,Sophie,Hundehalter*innen,,Thu Jun 02 2022 16:36:57 GMT+0200 (CEST),1654180617671,neutral,24.6314,filler_sentences,1
3509,,17602,21,,gender-neutral,Abitur,1654182095555,302,weiblich,1,Deutsch,2,NA,NA,NA,1,Babysitter*innen werden trotz fehlender Kitaplätze immer schlechter bezahlt. <br /> ____________ möchte sich deshalb einen neuen Job suchen.<br /> <br /> Bitte schreibe einen passenden Namen in das Feld.,Kira,Babysitter*innen,,Thu Jun 02 2022 16:36:57 GMT+0200 (CEST),1654180617671,female,24.6314,filler_sentences,1
3509,,14080,21,,gender-neutral,Abitur,1654182095555,302,weiblich,23,Deutsch,2,NA,NA,NA,1,"Um während Operationen konzentriert zu bleiben, haben alle Chirurg*innen ihre ganz persönlichen Strategien. <br />	____ hört gerne klassische Musik während eines Eingriffs. <br /><br /> Bitte schreibe einen passenden Namen in das Feld.",Maximilian,Chirurg*innen,,Thu Jun 02 2022 16:36:57 GMT+0200 (CEST),1654180617671,male,24.6314,filler_sentences,1
3509,,32565,21,,female,Abitur,1654182095555,302,weiblich,17,Deutsch,2,NA,NA,NA,1,Urbane Bürgermeisterinnen haben andere Prioritäten als jene auf dem Land. <br />	__________ legt das Hauptaugenmerk in der aktuellen Kampagne auf Innovation und Klimaschutz. <br /><br /> Bitte schreibe einen passenden Namen in das Feld.,Anne,Bürgermeister*innen,,Thu Jun 02 2022 16:36:57 GMT+0200 (CEST),1654180617671,male,24.6314,filler_sentences,1
3509,,19372,21,,female,Abitur,1654182095555,302,weiblich,11,Deutsch,2,NA,NA,NA,1,Autorinnen von Liebesromanen wird oft ein Hang zur Dramatik nachgesagt.<br /> ___________ lässt Geschichten deshalb stets mit einem Happy End enden. <br /><br /> Bitte schreibe einen passenden Namen in das Feld.,Uta,Autor*innen von Liebesromanen,,Thu Jun 02 2022 16:36:57 GMT+0200 (CEST),1654180617671,female,24.6314,filler_sentences,1
3509,,40422,21,,gender-neutral,Abitur,1654182095555,302,weiblich,8,Deutsch,2,NA,NA,NA,1,"Viele Haushälter*innen kümmern sich neben dem Haushalt auch um das seelische Wohl ihrer Vorgesetzten.<br /> ___________ hat immer ein offenes Ohr, wenn die Kinder Probleme in der Schule haben. <br /><br /> Bitte schreibe einen passenden Namen in das Feld.",Magret,Haushälter*innen,,Thu Jun 02 2022 16:36:57 GMT+0200 (CEST),1654180617671,female,24.6314,filler_sentences,1
3509,,24164,21,,female,Abitur,1654182095555,302,weiblich,28,Deutsch,2,NA,NA,NA,1,"Um die besten Angebote nicht zu verpassen, müssen Immobilienmaklerinnen täglich das Internet durchforsten. <br /> ____ hat allein heute 3 Stunden recherchiert. <br /><br /> Bitte schreibe einen passenden Namen in das Feld.",Uta,Immobilienmakler*innen,,Thu Jun 02 2022 16:36:57 GMT+0200 (CEST),1654180617671,neutral,24.6314,filler_sentences,1
3509,,11539,21,,female,Abitur,1654182095555,302,weiblich,32,Deutsch,2,NA,NA,NA,1,"Fotografen werden häufig für große Hochzeiten engagiert. <br /> ____ fotografiert dabei am liebsten spontane Momente, die nicht gestellt sind. <br /><br /> Bitte schreibe einen passenden Namen in das Feld.",Tom,Fotograf*innen,,Thu Jun 02 2022 16:36:57 GMT+0200 (CEST),1654180617671,neutral,24.6314,filler_sentences,1
3509,,39276,21,,male,Abitur,1654182095555,302,weiblich,25,Deutsch,2,NA,NA,NA,1,"Bei einer Vernissage stellen Künstler ihre aktuellen Werke vor. <br /> ____ präsentiert stolz eine neue Technik, die Gips und Sand auf eine einzigartige Art und Weise  miteinander verbindet. <br /><br /> Bitte schreibe einen passenden Namen in das Feld.",Richard,Künstler*innen,,Thu Jun 02 2022 16:36:57 GMT+0200 (CEST),1654180617671,neutral,24.6314,filler_sentences,1
3509,,25335,21,,gender-neutral,Abitur,1654182095555,302,weiblich,14,Deutsch,2,NA,NA,NA,1,Seit einiger Zeit nehmen Metzger*innen auch vegetarische Produkte in ihr Sortiment auf. <br /> __________ bietet jetzt auch Gemüsefrikadellen an der Frischetheke an. <br /><br /> Bitte schreibe einen passenden Namen in das Feld.,Frida,Metzger*innen,,Thu Jun 02 2022 16:36:57 GMT+0200 (CEST),1654180617671,male,24.6314,filler_sentences,1
3509,,19332,21,,male,Abitur,1654182095555,302,weiblich,35,Deutsch,2,NA,NA,NA,1,Eine eigene Praxis ist der Traum vieler Psychiater. <br /> ____ erhofft sich davon besonders flexible Arbeitszeiten. <br /><br /> Bitte schreibe einen passenden Namen in das Feld.,Holger,Psychiater*innen,,Thu Jun 02 2022 16:36:57 GMT+0200 (CEST),1654180617671,neutral,24.6314,filler_sentences,1
3509,,21345,21,,male,Abitur,1654182095555,302,weiblich,24,Deutsch,2,NA,NA,NA,1,Während einer Nachtschicht wird der Dienst von Taxifahrern hauptsächlich von Betrunkenen in Anspruch genommen. <br />	____ arbeitet deswegen lieber tagsüber. <br /><br /> Bitte schreibe einen passenden Namen in das Feld.,Carolin,Taxifahrer*innen,,Thu Jun 02 2022 16:36:57 GMT+0200 (CEST),1654180617671,male,24.6314,filler_sentences,1
3509,,23223,21,,female,Abitur,1654182095555,302,weiblich,29,Deutsch,2,NA,NA,NA,1,"Ein Journalismus Studium zu beginnen, ist in Deutschland sehr schwierig, weshalb viele angehende Journalistinnen einen alternativen Bildungsweg einschlagen. <br /> ____ möchte sich trotzdem an der Universität in Berlin bewerben. <br /><br /> Bitte schreibe einen passenden Namen in das Feld.",Anna,Journalist*innen,,Thu Jun 02 2022 16:36:57 GMT+0200 (CEST),1654180617671,neutral,24.6314,filler_sentences,1
3509,,26156,21,,gender-neutral,Abitur,1654182095555,302,weiblich,13,Deutsch,2,NA,NA,NA,1,"Um sich auf die Zeit im All vorzubereiten, müssen Astronaut*innen eine spezielle Schulung durchlaufen. <br /> __________ fällt es schwer, sich an die Trockennahrung zu gewöhnen. <br /><br /> Bitte schreibe einen passenden Namen in das Feld.",Amelie,Astronaut*innen,,Thu Jun 02 2022 16:36:57 GMT+0200 (CEST),1654180617671,male,24.6314,filler_sentences,1
3509,,27013,21,,female,Abitur,1654182095555,302,weiblich,12,Deutsch,2,NA,NA,NA,1,"Die Fast-Fashion Industrie sorgt dafür, dass Schneiderinnen kaum noch Aufträge bekommen. <br /> __________ sucht daher nach einem Nebenjob, um die Miete bezahlen zu können. <br /><br /> Bitte schreibe einen passenden Namen in das Feld.",Helga,Schneider*innen,,Thu Jun 02 2022 16:36:57 GMT+0200 (CEST),1654180617671,female,24.6314,filler_sentences,1
3509,,23319,21,,gender-neutral,Abitur,1654182095555,302,weiblich,21,Deutsch,2,NA,NA,NA,1,Eine erfolgreiche TV-Serie berichtet über die spannende Arbeit von Privatdetektiv*innen. <br />	____ arbeitet schon seit langem in einer Detektei und ärgert sich über die unauthentische Darstellung des Berufes. <br /><br /> Bitte schreibe einen passenden Namen in das Feld.,Rika,Privatdetektiv*innen,,Thu Jun 02 2022 16:36:57 GMT+0200 (CEST),1654180617671,male,24.6314,filler_sentences,1
3509,,85670,21,,male,Abitur,1654182095555,302,weiblich,5,Deutsch,2,NA,NA,NA,1,"Wenn die Jahreszeiten wechseln, müssen Floristen die ganze Gärtnerei neu dekorieren. <br /> __________ liebt vor allem die Herbstdekoration. <br /> <br /> Bitte schreibe einen passenden Namen in das Feld.",Daniela,Florist*innen,,Thu Jun 02 2022 16:36:57 GMT+0200 (CEST),1654180617671,female,24.6314,filler_sentences,1
3509,,12597,21,,gender-neutral,Abitur,1654182095555,302,weiblich,18,Deutsch,2,NA,NA,NA,1,"Die erfolgreiche Festnahme von Mörder*innen nimmt aufgrund technologischen Fortschritts immer weiter zu. <br />	__________ konnte aufgrund von Videoüberwachung und der Ortung des Smartphones schnell verhaftet werden, bevor es ein neues Opfer gab. <br /><br /> Bitte schreibe einen passenden Namen in das Feld.",Markus,Mörder*innen,,Thu Jun 02 2022 16:36:57 GMT+0200 (CEST),1654180617671,male,24.6314,filler_sentences,1
3509,,155321,21,,gender-neutral,Abitur,1654182095555,302,weiblich,4,Deutsch,2,NA,NA,NA,1,Ernährungsberater*innen empfehlen die Einnahme von Vitaminpräparaten. <br />___________ hält Vitamin D im Winter für besonders wichtig. <br /> <br /> Bitte schreibe einen passenden Namen in das Feld.,Wiebke,Ernährungsberater*innen,,Thu Jun 02 2022 16:36:57 GMT+0200 (CEST),1654180617671,female,24.6314,filler_sentences,1
3509,,11868,21,,gender-neutral,Abitur,1654182095555,302,weiblich,3,Deutsch,2,NA,NA,NA,1,Der Arbeitsalltag von Kassierer*innen ist sehr anstrengend. <br /> __________ muss jeden Morgen um fünf Uhr aufstehen. <br /> <br />Bitte schreibe einen passenden Namen in das Feld.,Udo,Kassierer*innen,,Thu Jun 02 2022 16:36:57 GMT+0200 (CEST),1654180617671,female,24.6314,filler_sentences,1
3509,,32748,21,,gender-neutral,Abitur,1654182095555,302,weiblich,22,Deutsch,2,NA,NA,NA,1,In Deutschland dürfen Soldat*innen kostenlos die öffentlichen Verkehrsmittel nutzen. <br />	____ besucht deshalb jede Woche die Familie. <br /> <br />Bitte schreibe einen passenden Namen in das Feld.,Ingo,Soldat*innen,,Thu Jun 02 2022 16:36:57 GMT+0200 (CEST),1654180617671,male,24.6314,filler_sentences,1
3509,,21689,21,,male,Abitur,1654182095555,302,weiblich,9,Deutsch,2,NA,NA,NA,1,"Nach dem Feierabend genießen die Kindergärtner die Ruhe von ihren kleinen Schützlingen.<br /> ___________ geht nach der Arbeit eine Runde joggen, um den Kopf freizubekommen. <br /><br /> Bitte schreibe einen passenden Namen in das Feld.",Torben,Kindergärtner*innen,,Thu Jun 02 2022 16:36:57 GMT+0200 (CEST),1654180617671,female,24.6314,filler_sentences,1
3509,,18657,21,,gender-neutral,Abitur,1654182095555,302,weiblich,19,Deutsch,2,NA,NA,NA,1,"Weil Pilot*innen beim Fliegen einer erhöhten Strahlung ausgesetzt sind, müssen sie früher in den Ruhestand. <br />		____ geht Ende des Jahres bereits in Rente, während Gleichaltrige noch 8 Jahre in ihrem Job arbeiten müssen. <br /><br /> Bitte schreibe einen passenden Namen in das Feld.",Thorsten,Pilot*innen,,Thu Jun 02 2022 16:36:57 GMT+0200 (CEST),1654180617671,male,24.6314,filler_sentences,1
3509,,17883,21,,gender-neutral,Abitur,1654182095555,302,weiblich,2,Deutsch,2,NA,NA,NA,1,Die Balletttänzer*innen der Kompanie haben ihre Generalprobe auf der großen Bühne. <br /> ____________ verletzt sich dabei am Bein. <br /> <br />Bitte schreibe einen passenden Namen in das Feld.,Victoria,Baletttänzer*innen,,Thu Jun 02 2022 16:36:57 GMT+0200 (CEST),1654180617671,female,24.6314,filler_sentences,1
3509,NA,NA,21,,NA,Abitur,1654182095555,302,weiblich,NA,Deutsch,NA,NA,NA,NA,NA,NA,second,NA,,Thu Jun 02 2022 16:36:57 GMT+0200 (CEST),1654180617671,NA,24.6314,name_check,1
3509,NA,NA,21,,NA,Abitur,1654182095555,302,weiblich,NA,Deutsch,NA,NA,NA,NA,NA,NA,first,NA,,Thu Jun 02 2022 16:36:57 GMT+0200 (CEST),1654180617671,NA,24.6314,name_check,2
3509,NA,NA,21,,NA,Abitur,1654182095555,302,weiblich,NA,Deutsch,NA,NA,NA,NA,NA,NA,second,NA,,Thu Jun 02 2022 16:36:57 GMT+0200 (CEST),1654180617671,NA,24.6314,name_check,3
3509,NA,NA,21,,NA,Abitur,1654182095555,302,weiblich,NA,Deutsch,NA,NA,NA,NA,NA,NA,first,NA,,Thu Jun 02 2022 16:36:57 GMT+0200 (CEST),1654180617671,NA,24.6314,name_check,4
3509,NA,NA,21,,NA,Abitur,1654182095555,302,weiblich,NA,Deutsch,NA,NA,NA,NA,NA,NA,first,NA,,Thu Jun 02 2022 16:36:57 GMT+0200 (CEST),1654180617671,NA,24.6314,name_check,5
3509,NA,NA,21,,NA,Abitur,1654182095555,302,weiblich,NA,Deutsch,NA,NA,NA,NA,NA,NA,second,NA,,Thu Jun 02 2022 16:36:57 GMT+0200 (CEST),1654180617671,NA,24.6314,name_check,6
3509,NA,NA,21,,NA,Abitur,1654182095555,302,weiblich,NA,Deutsch,NA,NA,NA,NA,NA,NA,first,NA,,Thu Jun 02 2022 16:36:57 GMT+0200 (CEST),1654180617671,NA,24.6314,name_check,7
3509,NA,NA,21,,NA,Abitur,1654182095555,302,weiblich,NA,Deutsch,NA,NA,NA,NA,NA,NA,second,NA,,Thu Jun 02 2022 16:36:57 GMT+0200 (CEST),1654180617671,NA,24.6314,name_check,8
3509,NA,NA,21,,NA,Abitur,1654182095555,302,weiblich,NA,Deutsch,NA,NA,NA,NA,NA,NA,second,NA,,Thu Jun 02 2022 16:36:57 GMT+0200 (CEST),1654180617671,NA,24.6314,name_check,9
3509,NA,NA,21,,NA,Abitur,1654182095555,302,weiblich,NA,Deutsch,NA,NA,NA,NA,NA,NA,second,NA,,Thu Jun 02 2022 16:36:57 GMT+0200 (CEST),1654180617671,NA,24.6314,name_check,10
3509,NA,NA,21,,NA,Abitur,1654182095555,302,weiblich,NA,Deutsch,NA,NA,NA,NA,NA,NA,second,NA,,Thu Jun 02 2022 16:36:57 GMT+0200 (CEST),1654180617671,NA,24.6314,name_check,11
3509,NA,NA,21,,NA,Abitur,1654182095555,302,weiblich,NA,Deutsch,NA,NA,NA,NA,NA,NA,second,NA,,Thu Jun 02 2022 16:36:57 GMT+0200 (CEST),1654180617671,NA,24.6314,name_check,12
3509,NA,NA,21,,NA,Abitur,1654182095555,302,weiblich,NA,Deutsch,NA,NA,NA,NA,NA,NA,first,NA,,Thu Jun 02 2022 16:36:57 GMT+0200 (CEST),1654180617671,NA,24.6314,name_check,13
3509,NA,NA,21,,NA,Abitur,1654182095555,302,weiblich,NA,Deutsch,NA,NA,NA,NA,NA,NA,first,NA,,Thu Jun 02 2022 16:36:57 GMT+0200 (CEST),1654180617671,NA,24.6314,name_check,14
3509,NA,NA,21,,NA,Abitur,1654182095555,302,weiblich,NA,Deutsch,NA,NA,NA,NA,NA,NA,second,NA,,Thu Jun 02 2022 16:36:57 GMT+0200 (CEST),1654180617671,NA,24.6314,name_check,15
3509,NA,NA,21,,NA,Abitur,1654182095555,302,weiblich,NA,Deutsch,NA,NA,NA,NA,NA,NA,first,NA,,Thu Jun 02 2022 16:36:57 GMT+0200 (CEST),1654180617671,NA,24.6314,name_check,16
3509,NA,NA,21,,NA,Abitur,1654182095555,302,weiblich,NA,Deutsch,NA,NA,NA,NA,NA,NA,first,NA,,Thu Jun 02 2022 16:36:57 GMT+0200 (CEST),1654180617671,NA,24.6314,name_check,17
3509,NA,NA,21,,NA,Abitur,1654182095555,302,weiblich,NA,Deutsch,NA,NA,NA,NA,NA,NA,first,NA,,Thu Jun 02 2022 16:36:57 GMT+0200 (CEST),1654180617671,NA,24.6314,name_check,18
3509,NA,NA,21,,NA,Abitur,1654182095555,302,weiblich,NA,Deutsch,NA,NA,NA,NA,NA,NA,first,NA,,Thu Jun 02 2022 16:36:57 GMT+0200 (CEST),1654180617671,NA,24.6314,name_check,19
3509,NA,NA,21,,NA,Abitur,1654182095555,302,weiblich,NA,Deutsch,NA,NA,NA,NA,NA,NA,second,NA,,Thu Jun 02 2022 16:36:57 GMT+0200 (CEST),1654180617671,NA,24.6314,name_check,20
3509,NA,NA,21,,NA,Abitur,1654182095555,302,weiblich,NA,Deutsch,NA,NA,NA,NA,NA,NA,second,NA,,Thu Jun 02 2022 16:36:57 GMT+0200 (CEST),1654180617671,NA,24.6314,name_check,21
3509,NA,NA,21,,NA,Abitur,1654182095555,302,weiblich,NA,Deutsch,NA,NA,NA,NA,NA,NA,first,NA,,Thu Jun 02 2022 16:36:57 GMT+0200 (CEST),1654180617671,NA,24.6314,name_check,22
3509,NA,NA,21,,NA,Abitur,1654182095555,302,weiblich,NA,Deutsch,NA,NA,NA,NA,NA,NA,second,NA,,Thu Jun 02 2022 16:36:57 GMT+0200 (CEST),1654180617671,NA,24.6314,name_check,23
3509,NA,NA,21,,NA,Abitur,1654182095555,302,weiblich,NA,Deutsch,NA,NA,NA,NA,NA,NA,first,NA,,Thu Jun 02 2022 16:36:57 GMT+0200 (CEST),1654180617671,NA,24.6314,name_check,24
3509,NA,NA,21,,NA,Abitur,1654182095555,302,weiblich,NA,Deutsch,NA,NA,NA,NA,NA,NA,first,NA,,Thu Jun 02 2022 16:36:57 GMT+0200 (CEST),1654180617671,NA,24.6314,name_check,25
3509,NA,NA,21,,NA,Abitur,1654182095555,302,weiblich,NA,Deutsch,NA,NA,NA,NA,NA,NA,first,NA,,Thu Jun 02 2022 16:36:57 GMT+0200 (CEST),1654180617671,NA,24.6314,name_check,26
3509,NA,NA,21,,NA,Abitur,1654182095555,302,weiblich,NA,Deutsch,NA,NA,NA,NA,NA,NA,first,NA,,Thu Jun 02 2022 16:36:57 GMT+0200 (CEST),1654180617671,NA,24.6314,name_check,27
3509,NA,NA,21,,NA,Abitur,1654182095555,302,weiblich,NA,Deutsch,NA,NA,NA,NA,NA,NA,first,NA,,Thu Jun 02 2022 16:36:57 GMT+0200 (CEST),1654180617671,NA,24.6314,name_check,28
3509,NA,NA,21,,NA,Abitur,1654182095555,302,weiblich,NA,Deutsch,NA,NA,NA,NA,NA,NA,first,NA,,Thu Jun 02 2022 16:36:57 GMT+0200 (CEST),1654180617671,NA,24.6314,name_check,29
3509,NA,NA,21,,NA,Abitur,1654182095555,302,weiblich,NA,Deutsch,NA,NA,NA,NA,NA,NA,second,NA,,Thu Jun 02 2022 16:36:57 GMT+0200 (CEST),1654180617671,NA,24.6314,name_check,30
3509,NA,NA,21,,NA,Abitur,1654182095555,302,weiblich,NA,Deutsch,NA,NA,NA,NA,NA,NA,first,NA,,Thu Jun 02 2022 16:36:57 GMT+0200 (CEST),1654180617671,NA,24.6314,name_check,31
3509,NA,NA,21,,NA,Abitur,1654182095555,302,weiblich,NA,Deutsch,NA,NA,NA,NA,NA,NA,second,NA,,Thu Jun 02 2022 16:36:57 GMT+0200 (CEST),1654180617671,NA,24.6314,name_check,32
3509,NA,NA,21,,NA,Abitur,1654182095555,302,weiblich,NA,Deutsch,NA,NA,NA,NA,NA,NA,second,NA,,Thu Jun 02 2022 16:36:57 GMT+0200 (CEST),1654180617671,NA,24.6314,name_check,33
3509,NA,NA,21,,NA,Abitur,1654182095555,302,weiblich,NA,Deutsch,NA,NA,NA,NA,NA,NA,second,NA,,Thu Jun 02 2022 16:36:57 GMT+0200 (CEST),1654180617671,NA,24.6314,name_check,34
3509,NA,NA,21,,NA,Abitur,1654182095555,302,weiblich,NA,Deutsch,NA,NA,NA,NA,NA,NA,second,NA,,Thu Jun 02 2022 16:36:57 GMT+0200 (CEST),1654180617671,NA,24.6314,name_check,35
3509,NA,NA,21,,NA,Abitur,1654182095555,302,weiblich,NA,Deutsch,NA,NA,NA,NA,NA,NA,first,NA,,Thu Jun 02 2022 16:36:57 GMT+0200 (CEST),1654180617671,NA,24.6314,name_check,36
3509,,5730,21,,NA,Abitur,1654182095555,302,weiblich,3,Deutsch,NA,Männlich,Neutral,Weiblich,3,<strong>Kassierer*innen</strong> <br /> Mit welchem Geschlecht würdest du dieses Wort am ehesten assoziieren?,Neutral,Kassierer*innen,,Thu Jun 02 2022 16:36:57 GMT+0200 (CEST),1654180617671,female,24.6314,forced_choice_3A,1
